timestamp,accX,accY,accZ,gyrX,gyrY,gyrZ
21,0.02,-0.0215,1.2231,-0.7939,-0.7176,3.5496
41,0.0161,-0.0247,1.2256,-0.6718,-1.4656,3.5344
61,0.0227,-0.02,1.2383,-0.4351,-2.4962,3.4733
81,0.0256,-0.0181,1.2112,-0.3359,-2.8321,3.4885
101,0.0264,-0.0249,1.2,-0.3817,-1.4504,3.4885
121,0.022,-0.0195,1.22,-0.6565,-0.6947,3.4198
141,0.0239,-0.0168,1.2244,-0.8702,-1.4885,3.4275
161,0.0154,-0.0151,1.2351,-0.5191,-2.5573,3.2672
181,0.0232,-0.0083,1.2231,-0.1756,-2.3359,3.4122
201,0.0198,-0.0076,1.2437,-0.6718,-1.6641,3.4885
221,0.0298,-0.0181,1.2422,-0.7863,-1.1298,3.4122
241,0.0286,-0.0022,1.2395,-0.6031,-2.0611,3.5267
261,0.0154,-0.011,1.2373,-0.2824,-2.9084,3.4656
281,0.0212,-0.0188,1.2268,-0.2748,-1.7252,3.4504
301,0.0139,-0.0083,1.2458,-0.6336,-0.3817,3.4198
321,0.011,-0.0107,1.2368,-0.7939,-0.4427,3.3511
341,0.0063,0.0007,1.2495,-0.8092,-1.7176,3.3817
361,0.0139,-0.0056,1.229,-0.2901,-2.6107,3.6794
381,0.0137,-0.0098,1.2302,-0.4351,-1.6718,3.5115
401,0.0007,-0.0066,1.2256,-0.6489,-0.6794,3.2977
421,0.0012,-0.021,1.2266,-0.4809,-1.229,3.3588
441,0.0085,-0.0134,1.2236,-0.3511,-1.8168,3.3969
461,0.0122,-0.022,1.2292,-0.3817,-1.8015,3.4962
481,0.021,-0.0208,1.2222,-0.6641,-1.6412,3.5191
501,0.0137,-0.0173,1.2161,-0.7481,-2.1985,3.3435
521,0.012,-0.0193,1.2273,-0.7939,-2.0611,3.4809
541,0.019,-0.011,1.2361,-0.8321,-2.1374,3.4275
561,0.0103,-0.0171,1.2314,-0.7481,-2.5191,3.5649
581,0.0161,-0.0132,1.238,-0.9466,-2.1985,3.4198
601,0.0237,-0.0085,1.2388,-0.8244,-2.2137,3.3893
621,0.0281,-0.009,1.24,-0.8321,-2.2672,3.4809
641,0.0171,-0.0112,1.2378,-1.1527,-1.9618,3.4656
661,0.0225,-0.0164,1.2251,-0.8931,-2.3206,3.4733
681,0.0161,-0.0134,1.2451,-1.0305,-2.2443,3.313
701,0.0195,-0.0205,1.2371,-0.8397,-1.3893,3.4656
721,0.0176,-0.0183,1.2219,-0.5649,-1.7481,3.4504
741,0.0129,-0.0083,1.252,-0.8855,-2.2595,3.3206
761,0.0212,-0.0139,1.2351,-0.7557,-1.5115,3.5344
781,0.0176,-0.0132,1.2283,-0.7328,-1.4656,3.374
801,0.021,-0.0132,1.2307,-0.6336,-1.5573,3.5649
821,0.0229,-0.0183,1.2324,-0.3969,-1.374,3.4275
841,0.0234,-0.0239,1.2314,-0.374,-1.4733,3.4122
861,0.0127,-0.0288,1.2144,-0.1679,-1.8855,3.5649
881,0.0254,-0.0229,1.2168,-0.1985,-1.2977,3.4504
901,0.0242,-0.0186,1.2185,-0.4427,-1.6641,3.4198
921,0.0249,-0.021,1.2158,-0.3969,-1.7252,3.3282
941,0.0249,-0.0283,1.2163,-0.3359,-1.626,3.5725
961,0.0208,-0.0291,1.2163,-0.4504,-2.0305,3.4656
981,0.0276,-0.021,1.2249,-0.5802,-2.3664,3.4733
1001,0.021,-0.0132,1.2422,-0.6947,-1.5954,3.3893
1021,0.0256,-0.0222,1.2214,-0.5649,-1.6107,3.374
1041,0.022,-0.012,1.2236,-0.4504,-1.9466,3.5725
1061,0.02,-0.0063,1.251,-0.5496,-1.8397,3.3282
1081,0.0181,-0.011,1.2412,-0.4809,-1.5802,3.1756
1101,0.0159,-0.0193,1.2288,-0.1985,-1.6947,3.4504
1121,0.019,-0.0154,1.2446,-0.313,-1.6565,3.4046
1141,0.0164,-0.0137,1.2195,-0.4122,-2.0229,3.4733
1161,0.0161,-0.0142,1.2356,-0.4962,-1.6336,3.6412
1181,0.0146,-0.0083,1.2207,-0.6031,-1.1679,3.4809
1201,0.012,-0.0142,1.2373,-0.687,-1.2595,3.3893
1221,0.0061,-0.0146,1.2314,-0.3206,-1.7634,3.6489
1241,0.0063,-0.0103,1.2437,-0.7863,-1.542,3.3359
1261,0.0129,-0.0098,1.2505,-0.7176,-1.5038,3.6641
1281,0.0088,-0.0168,1.2368,-0.626,-1.9008,3.3664
1301,0.0098,-0.0105,1.2307,-1.084,-1.6107,3.5496
1321,0.0129,-0.0144,1.2222,-0.7481,-1.4275,3.3664
1341,0.0159,-0.0144,1.2354,-0.771,-2.7786,3.4198
1361,0.01,-0.0181,1.2275,-0.8473,-2.4885,3.2443
1381,0.0154,-0.0125,1.2495,-1.0229,-2.313,3.5725
1401,0.0115,-0.0203,1.2332,-1,-2.4122,3.3969
1421,0.0229,-0.0244,1.241,-1.2519,-2.626,3.4656
1441,0.0229,-0.0154,1.2314,-1.0687,-2.2824,3.2519
1461,0.0269,-0.0115,1.2534,-0.8931,-2.3053,3.4733
1481,0.0168,-0.002,1.2681,-1.1374,-2.2672,3.084
1501,0.0227,-0.0088,1.2576,-1.0687,-2.0229,3.3511
1521,0.0181,-0.0144,1.2512,-1.3435,-2.3282,3.4427
1541,0.0173,-0.0183,1.2344,-0.9466,-1.9466,3.4962
1561,0.0144,-0.0188,1.2339,-0.916,-1.8397,3.5649
1581,0.0178,-0.0132,1.2405,-0.8015,-1.7328,3.2366
1601,0.0242,-0.0137,1.2373,-0.7328,-1.9084,3.6183
1621,0.0229,-0.0168,1.2363,-0.6412,-1.771,3.145
1641,0.019,-0.0168,1.2473,-0.7023,-1.6947,3.4122
1661,0.0181,-0.0154,1.2395,-0.7405,-1.5191,3.4275
1681,0.0181,-0.0193,1.2422,-0.5802,-1.4885,3.5115
1701,0.0188,-0.0227,1.2224,-0.1603,-1.458,3.5115
1721,0.0173,-0.0173,1.2253,-0.1908,-1.8931,3.4198
1741,0.0286,-0.0132,1.2244,-0.4275,-1.771,3.5115
1761,0.0222,-0.0251,1.2024,-0.0687,-1.3206,3.4885
1781,0.0215,-0.033,1.2117,-0.3282,-1.5802,3.6107
1801,0.0269,-0.0293,1.2048,-0.3359,-1.7328,3.4656
1821,0.0205,-0.021,1.2368,-0.5115,-1.8855,3.542
1841,0.0251,-0.0208,1.2278,-0.313,-1.687,3.4046
1861,0.031,-0.0205,1.2339,-0.4275,-1.687,3.4351
1881,0.0249,-0.0112,1.2361,-0.5954,-2.0534,3.4122
1901,0.021,-0.0129,1.2454,-0.4427,-1.9618,3.3664
1921,0.0237,-0.0142,1.2498,-0.5496,-2.1832,3.3969
1941,0.019,-0.0078,1.2412,-0.458,-1.4351,3.4046
1961,0.0176,-0.0149,1.2546,-0.8168,-1.5038,3.229
1981,0.0205,-0.0161,1.2271,-0.3206,-1.8397,3.4275
2001,0.0193,-0.0042,1.2385,-0.542,-1.9924,3.4962
2021,0.019,-0.0056,1.2224,-0.4351,-1.229,3.3969
2041,0.0166,-0.0132,1.2502,-0.6336,-1.2977,3.5267
2061,0.0071,-0.0046,1.2544,-0.9237,-1.5115,3.374
2081,0.0059,-0.009,1.2366,-0.3893,-1.3893,3.5496
2101,0.0046,-0.0071,1.2263,-0.4733,-1.5725,3.7328
2121,0.0176,-0.0168,1.2231,-0.8397,-1.7099,3.5038
2141,0.0146,-0.0139,1.2375,-0.6718,-0.9466,3.3893
2161,0.0151,-0.0181,1.1992,-0.2824,-1.3664,3.5496
2181,0.0232,-0.0264,1.2107,-0.458,-2.1374,3.4122
2201,0.02,-0.0256,1.2314,-0.9084,-2,3.2977
2221,0.0107,-0.0229,1.1992,-0.4885,-1.7176,3.3969
2241,0.0183,-0.0251,1.2139,-0.7863,-1.9466,3.313
2261,0.0193,-0.0107,1.25,-0.9313,-2.145,3.2748
2281,0.0166,-0.0115,1.2224,-0.916,-2.4504,3.5038
2301,0.0161,-0.0146,1.2329,-0.9466,-2.4122,3.4198
2321,0.0215,-0.011,1.2476,-1.3435,-1.6336,3.6489
2341,0.0229,-0.0176,1.2397,-0.9389,-2.1908,3.4198
2361,0.0251,-0.0129,1.2539,-0.9542,-2.3893,3.4046
2381,0.0239,-0.0161,1.2461,-0.9771,-2.0076,3.3893
2401,0.0217,-0.0056,1.2412,-1.2595,-2.2214,3.3206
2421,0.0254,-0.0046,1.2502,-0.9847,-1.9847,3.4656
2441,0.0161,-0.0156,1.241,-0.916,-1.4656,3.4351
2461,0.0173,-0.0149,1.2512,-0.6794,-1.8702,3.5496
2481,0.0181,-0.0225,1.2271,-0.5802,-2.0076,3.5191
2501,0.019,-0.0142,1.2417,-0.7328,-1.4809,3.3359
2521,0.021,-0.0156,1.2271,-0.3588,-0.9389,3.5267
2541,0.0183,-0.0222,1.2271,-0.4733,-1.5038,3.3588
2561,0.0281,-0.0227,1.2239,-0.5954,-1.5649,3.4122
2581,0.0234,-0.0164,1.2224,-0.2137,-1.8244,3.4122
2601,0.0234,-0.0198,1.231,-0.1832,-1.542,3.4809
2621,0.0132,-0.0229,1.2156,-0.2595,-1.3206,3.6565
2641,0.0195,-0.0229,1.2141,-0.3511,-1.4504,3.4809
2661,0.0256,-0.0217,1.2244,-0.1069,-2.0153,3.5802
2681,0.021,-0.0225,1.2312,-0.2748,-1.9237,3.3664
2701,0.021,-0.0146,1.2361,-0.374,-1.5038,3.2748
2721,0.0256,-0.0229,1.2161,-0.5344,-1.8092,3.313
2741,0.0215,-0.0229,1.2173,-0.2443,-1.9618,3.4885
2761,0.0295,-0.0261,1.207,-0.6641,-2.2824,3.5038
2781,0.0198,-0.0139,1.2295,-0.5191,-1.855,3.5038
2801,0.019,-0.011,1.2375,-0.5802,-1.3969,3.4809
2821,0.0251,-0.0042,1.2466,-0.7481,-1.7863,3.5573
2841,0.0166,-0.0078,1.2356,-0.3893,-2.0763,3.4962
2861,0.01,-0.0095,1.2305,-0.7634,-2.0992,3.5496
2881,0.0173,-0.0134,1.229,-0.5649,-1.6947,3.3511
2901,0.0144,-0.0151,1.2268,-0.5954,-1.4962,3.5115
2921,0.001,-0.0073,1.2288,-0.6412,-1.4962,3.2901
2941,0.0059,-0.0076,1.2305,-0.3053,-1.8015,3.4504
2961,0.0139,-0.0132,1.2205,-0.1908,-1.4962,3.2672
2981,0.0127,-0.0171,1.2332,-0.6107,-1.3053,3.4275
3001,0.012,-0.0093,1.2405,-0.6947,-1.5038,3.4198
3021,0.0088,-0.0164,1.2231,-0.5725,-1.6489,3.4198
3041,0.0061,-0.0098,1.2319,-0.7786,-2.2672,3.3664
3061,0.0059,-0.0134,1.2432,-0.687,-2.1221,3.313
3081,0.0151,-0.01,1.2329,-0.7328,-1.9237,3.4275
3101,0.0171,-0.0164,1.2329,-1.2519,-2.0458,3.4198
3121,0.0154,-0.0151,1.239,-0.7252,-2.4351,3.458
3141,0.0173,-0.0222,1.2427,-0.687,-2.2824,3.4885
3161,0.0154,-0.0093,1.2446,-1.2061,-2.2519,3.374
3181,0.0159,-0.0081,1.2461,-0.9924,-2.1145,3.4809
3201,0.0244,-0.0156,1.2554,-1.0458,-2.2901,3.4351
3221,0.0259,-0.0176,1.2329,-1.1069,-2.1374,3.3359
3241,0.0286,-0.0195,1.2378,-0.8702,-1.9542,3.4809
3261,0.0249,-0.0168,1.2346,-0.916,-2.1298,3.4504
3281,0.0254,-0.019,1.2446,-0.8855,-1.8931,3.5115
3301,0.0222,-0.0208,1.2322,-0.9237,-1.7405,3.3969
3321,0.0266,-0.01,1.231,-0.6565,-1.5725,3.5802
3341,0.0151,-0.0198,1.2397,-0.4504,-1.9695,3.4962
3361,0.02,-0.0259,1.2102,-0.1221,-1.3511,3.4656
3381,0.0198,-0.0117,1.2358,-0.4198,-1.2366,3.313
3401,0.0161,-0.0144,1.2302,-0.5573,-1.5267,3.3969
3421,0.0239,-0.0276,1.2151,-0.2137,-1.5267,3.4809
3441,0.02,-0.0244,1.2146,-0.2214,-1.2137,3.4046
3461,0.0164,-0.0259,1.2214,-0.3359,-0.9389,3.5344
3481,0.0137,-0.0208,1.208,-0.1527,-2.084,3.4046
3501,0.019,-0.0183,1.2332,-0.2901,-2.3206,3.3664
3521,0.0215,-0.0232,1.2349,-0.5038,-1.1374,3.3893
3541,0.0227,-0.0244,1.2205,-0.4885,-0.7099,3.5573
3561,0.0098,-0.0186,1.21,0,-2.0153,3.4733
3581,0.0083,-0.0183,1.2273,-0.1527,-2.3511,3.6412
3601,0.0242,-0.0112,1.2231,-0.1756,-2.1832,3.3511
3621,0.0232,-0.012,1.2332,-0.6107,-1.2137,3.3511
3641,0.0166,-0.0068,1.2322,-0.7939,-1.0153,3.4198
3661,0.0229,-0.0095,1.2258,-0.4046,-2.7939,3.5344
3681,0.0234,-0.0132,1.2368,-0.2977,-3.1145,3.3359
3701,0.0159,-0.0149,1.2563,-0.8397,-0.2977,3.542
3721,0.0107,-0.0117,1.2356,-0.8473,-0.7863,3.4046
3741,0.0139,-0.0063,1.2207,-0.3969,-2.6718,3.4962
3761,0.0071,-0.0125,1.2153,-0.3053,-2.5954,3.4351
3781,0.0154,-0.0078,1.2454,-0.771,-1.7634,3.542
3801,0.0129,-0.0112,1.251,-0.9313,-0.9389,3.3435
3821,0.0178,-0.0159,1.2205,-0.8702,-0.6031,3.4656
3841,0.0103,-0.0146,1.2312,-0.458,-2.3206,3.4198
3861,0.0049,-0.0171,1.2314,-0.6031,-3.0305,3.5496
3881,0.0129,-0.0188,1.2373,-0.7939,-1.771,3.4198
3901,0.0134,-0.0146,1.2437,-1.0992,-1.1603,3.5115
3921,0.0173,-0.0198,1.2288,-1.0382,-1.2137,3.374
3941,0.0134,-0.0168,1.2224,-0.7176,-2.7557,3.4733
3961,0.02,-0.0176,1.2266,-0.2977,-3.687,3.4885
3981,0.0234,-0.0208,1.2363,-0.7328,-1.7634,3.4122
4001,0.022,-0.0217,1.2498,-1.4198,0.2443,3.3893
4021,0.012,-0.0239,1.2334,-1.0611,-2.2595,3.4122
4041,0.0261,-0.0222,1.2202,-0.3588,-4.2443,3.4351
4061,0.0217,-0.0139,1.2483,-0.7328,-2.7634,3.4504
4081,0.0254,-0.0146,1.2556,-0.9237,-0.4504,3.2519
4101,0.0264,-0.022,1.2432,-1.0305,-0.916,3.458
4121,0.0208,-0.0161,1.2322,-0.458,-2.7176,3.3817
4141,0.0137,-0.0161,1.2471,-0.8397,-3.5191,3.3282
4161,0.0198,-0.0112,1.2327,-0.6947,-1.1679,3.4656
4181,0.0232,-0.0127,1.2441,-1.1221,-0.0611,3.4504
4201,0.0186,-0.0156,1.2263,-0.5115,-1.5573,3.4809
4221,0.0146,-0.0166,1.2158,-0.2214,-2.7252,3.5267
4241,0.0149,-0.0125,1.2551,-0.771,-2.1985,3.6031
4261,0.0237,-0.0188,1.2263,-0.4198,-1.9924,3.6031
4281,0.0156,-0.0225,1.2202,-0.5802,-1.3664,3.3511
4301,0.0156,-0.0288,1.2109,-0.458,0.0229,3.4809
4321,0.0107,-0.0198,1.2195,-0.3206,-2.1221,3.4122
4341,0.021,-0.0168,1.2229,0.1603,-4.0305,3.542
4361,0.0288,-0.0173,1.2224,-0.0916,-1.855,3.5115
4381,0.0327,-0.0232,1.2009,-0.4427,0.2977,3.2595
4401,0.0125,-0.0225,1.2109,-0.4885,-0.4504,3.3893
4421,0.012,-0.0176,1.2236,-0.3435,-2.9237,3.3511
4441,0.0264,-0.0095,1.2234,-0.1603,-3.2443,3.458
4461,0.0266,-0.0125,1.2449,-0.4962,-1.1145,3.458
4481,0.0137,-0.0166,1.2212,-1.0229,-0.4122,3.4427
4501,0.0146,-0.0176,1.2378,-0.3817,-2.8473,3.3359
4521,0.0239,-0.0105,1.2432,-0.3511,-3.0382,3.3511
4541,0.0166,-0.0039,1.2605,-0.7328,-1.5802,3.4122
4561,0.0088,-0.0076,1.2542,-0.7252,-1.1756,3.3817
4581,0.0042,-0.0066,1.2698,-0.7099,-2.2595,3.4198
4601,0.0068,-0.0007,1.2437,-0.458,-2.0076,3.542
4621,0.0154,-0.0181,1.2222,-0.2137,-2.0458,3.4351
4641,0.012,-0.0073,1.2463,-0.8321,-1.7099,3.2443
4661,0.0112,-0.0107,1.2493,-0.8702,-0.9313,3.5267
4681,0.009,-0.012,1.2339,-0.7023,-1.7481,3.4656
4701,0.0137,-0.0156,1.2336,-1.0076,-1.9695,3.3817
4721,0.0137,-0.012,1.2522,-1.145,-2.0229,3.4809
4741,0.0098,-0.0044,1.2625,-1.1145,-2.0458,3.6107
4761,0.0193,-0.02,1.2183,-0.7557,-1.8244,3.5344
4781,0.0215,-0.0232,1.2173,-0.8321,-1.145,3.2977
4801,0.0183,-0.0173,1.2153,-0.5954,-2.4198,3.542
4821,0.0117,-0.0166,1.2397,-0.4351,-3,
4921,0.0254,-0.0278,1.2346,-0.7481,-2.8855,3.4046
5023,0.0156,-0.0159,1.2446,-0.7634,-1.8321,3.4885
5042,0.0229,-0.0166,1.2341,-0.229,-1.542,3.5878
5062,0.0264,-0.0259,1.2146,-0.084,-1.5344,3.374
5082,0.0244,-0.0164,1.2153,-0.1069,-1.1679,3.542
5102,0.0181,-0.0085,1.2239,-0.0763,-1.6412,3.4962
5122,0.0083,-0.0159,1.2437,-0.4809,-1.3206,3.1832
5142,0.0076,-0.0107,1.2429,-0.5496,-0.7328,3.5878
5162,0.0181,-0.0188,1.2224,-0.1908,-1.5878,3.6107
5182,0.0042,-0.0095,1.2324,-0.1756,-2.3969,3.5954
5202,0.0098,-0.0115,1.2446,-0.1832,-1.5496,3.084
5222,0.0166,-0.0129,1.2283,-0.2214,-0.7252,3.6641
5242,0.0137,-0.0227,1.2314,-0.4504,-0.8931,3.2977
5262,0.0125,-0.0161,1.2024,0.0305,-1.5954,3.6183
5282,0.0137,-0.0215,1.199,-0.2061,-2.7023,3.542
5302,0.012,-0.0161,1.217,-0.9618,-2.4427,3.4733
5322,0.0129,-0.0105,1.2307,-1.0687,-1.0229,3.3969
5342,0.0203,-0.0127,1.2407,-0.8015,-1.7939,3.4198
5362,0.0222,-0.0164,1.2302,-0.6183,-2.4275,3.4504
5382,0.0193,-0.0166,1.2229,-0.8092,-2.1603,3.5725
5402,0.0112,-0.0132,1.2512,-1.0916,-2.3817,3.4809
5422,0.0159,-0.0085,1.2524,-0.8244,-2.0305,3.4962
5442,0.0166,-0.0103,1.252,-0.8092,-1.8855,3.3282
5462,0.02,-0.0093,1.2434,-0.8168,-2.2824,3.4427
5482,0.0188,-0.0049,1.2424,-0.916,-2.3664,3.3053
5502,0.0254,-0.0081,1.2383,-1.1145,-1.5573,3.3511
5522,0.0105,-0.0183,1.25,-1.0534,-1.5802,3.3359
5542,0.0115,-0.0164,1.2432,-0.9924,-1.771,3.3511
5562,0.0095,-0.0078,1.2622,-1.2061,-2.2366,3.3359
5582,0.0178,-0.0164,1.2317,-0.6947,-2.2214,3.4351
5602,0.0164,-0.0078,1.251,-0.9924,-1.0687,3.4427
5622,0.0151,-0.0205,1.2292,-0.5878,-0.8092,3.2595
5642,0.019,-0.0227,1.2014,-0.0229,-2.0458,3.6031
5662,0.011,-0.0254,1.2188,-0.4198,-2.5496,3.6336
5682,0.0193,-0.0247,1.2336,-0.5802,-1.1603,3.3817
5702,0.0171,-0.0229,1.2153,-0.5115,-1.3969,3.3817
5722,0.0166,-0.0249,1.2107,-0.3817,-2.1603,3.5573
5742,0.0198,-0.0198,1.2253,-0.687,-2.2061,3.4656
5762,0.0225,-0.0188,1.2261,-0.5573,-2.0382,3.3359
5782,0.0286,-0.0276,1.2358,-0.6412,-1.8473,3.4275
5802,0.0281,-0.0195,1.2205,-0.6794,-1.542,3.458
5822,0.0183,-0.0242,1.2229,-0.7863,-2.1145,3.4885
5842,0.0217,-0.02,1.2058,-0.6489,-1.9542,3.5267
5862,0.0244,-0.0208,1.2288,-0.6183,-1.6565,3.4733
5882,0.0254,-0.0112,1.2395,-0.4733,-1.3435,3.5802
5902,0.0156,-0.0125,1.2424,-0.6183,-1.2366,3.4962
5922,0.0237,-0.0181,1.2207,-0.4962,-1.3664,3.3511
5942,0.0144,-0.0078,1.2258,-0.2977,-1.8702,3.4656
5962,0.0093,-0.0227,1.2334,-0.7786,-1.2977,3.6794
5982,0.0154,-0.0195,1.209,-0.2977,-0.687,3.5573
6002,0.0166,-0.0066,1.2456,-0.4809,-1.1069,3.3893
6022,0.0042,-0.0051,1.2495,-0.5191,-2.0992,3.458
6042,0.0107,-0.0129,1.2234,-0.313,-1.6718,3.4122
6062,0.0027,-0.0247,1.2305,-0.5954,-0.7405,3.5115
6082,0.009,-0.0193,1.2361,-0.6183,-1.2214,3.4122
6102,0.0068,-0.0176,1.2351,-0.4656,-1.9084,3.5191
6122,0.021,-0.0154,1.2283,-0.229,-2.4504,3.374
6142,0.0173,-0.0115,1.2271,-0.5038,-1.9924,3.458
6162,0.021,-0.0142,1.2393,-0.7939,-1.4885,3.4733
6182,0.0176,-0.0093,1.2339,-0.7481,-2.0916,3.458
6202,0.019,-0.0144,1.2341,-0.7099,-2.3664,3.6107
6222,0.0137,-0.019,1.2234,-0.6412,-2.1298,3.3817
6242,0.0247,-0.019,1.2385,-0.855,-1.8626,3.4885
6262,0.0132,-0.0068,1.2466,-0.9389,-2.1145,3.5191
6282,0.0129,-0.0137,1.2478,-0.8702,-1.9695,3.5344
6302,0.0159,-0.0144,1.239,-1.1756,-2.3435,3.542
6322,0.0229,-0.0105,1.2563,-0.7176,-2.229,3.4275
6342,0.0149,-0.0161,1.2437,-1.1527,-1.7863,3.3664
6362,0.0229,-0.0183,1.2385,-0.8321,-2.0534,3.4351
6382,0.0188,-0.0154,1.2439,-1.1069,-1.6947,3.4275
6402,0.0168,-0.0203,1.2346,-0.7405,-1.5267,3.4885
6422,0.0183,-0.0166,1.2297,-0.9695,-1.6565,3.4122
6442,0.0222,-0.0154,1.251,-0.6947,-1.458,3.2443
6462,0.0266,-0.0217,1.2378,-0.7863,-1.3511,3.374
6482,0.0186,-0.0227,1.2046,-0.458,-1.542,3.7176
6502,0.0183,-0.0227,1.2346,-0.6336,-1.6336,3.4427
6522,0.0227,-0.0164,1.2239,-0.3282,-1.5649,3.4122
6542,0.0171,-0.0227,1.2266,-0.3359,-1.6412,3.5573
6562,0.0186,-0.0195,1.2236,-0.3359,-1.8244,3.4427
6582,0.0249,-0.0273,1.2251,-0.7023,-2.0382,3.4885
6602,0.0295,-0.0237,1.2161,-0.5115,-1.8855,3.5115
6622,0.0293,-0.0269,1.1943,-0.4198,-1.8092,3.6107
6642,0.0259,-0.0198,1.2249,-0.3359,-1.8702,3.4198
6662,0.0293,-0.0259,1.2163,-0.2824,-1.7939,3.6489
6682,0.0215,-0.0178,1.2305,-0.374,-1.542,3.3053
6702,0.0266,-0.009,1.241,-0.6336,-2.2366,3.3969
6722,0.0156,-0.0081,1.2444,-0.5649,-2.3053,3.5878
6742,0.0149,-0.0269,1.2314,-0.8244,-1.5878,3.3817
6762,0.019,-0.0208,1.2344,-0.7023,-1,3.5802
6782,0.021,-0.0103,1.2222,-0.3664,-1.5725,3.3893
6802,0.0183,-0.012,1.2271,-0.3053,-2.2824,3.4351
6822,0.0229,-0.0139,1.2244,-0.1679,-1.5878,3.5725
6842,0.0149,-0.0107,1.2217,-0.4885,-1.1679,3.3435
6862,0.0059,-0.0078,1.2437,-0.6107,-1.4046,3.5649
6882,0.0132,-0.012,1.2366,-0.5802,-1.7023,3.5038
6902,0.0142,-0.0227,1.2131,-0.4275,-1.3588,3.6565
6922,0.0095,-0.0225,1.2302,-0.5878,-1.2672,3.3359
6942,0.0076,-0.0176,1.2144,-0.5191,-1.5573,3.771
6962,0.0049,-0.0176,1.2422,-0.1374,-2.1298,3.5038
6982,0.0181,-0.0198,1.2175,-0.4351,-1.9847,3.542
7002,0.0122,-0.0127,1.2417,-0.6565,-1.8168,3.1603
7022,0.0146,-0.0117,1.23,-0.7099,-1.8015,3.4885
7042,0.0085,-0.0176,1.22,-0.8397,-2.0992,3.4809
7062,0.0178,-0.0105,1.2444,-0.7863,-2.2061,3.4962
7082,0.0205,-0.0139,1.2256,-0.5725,-2.4809,3.5649
7102,0.0225,-0.0181,1.2234,-0.7863,-2.2061,3.1069
7122,0.0205,-0.01,1.2471,-1.0305,-2.0458,3.374
7142,0.0291,-0.0139,1.2297,-0.8473,-2.0763,3.4504
7162,0.0142,-0.0071,1.2542,-1.0458,-2.2519,3.3664
7182,0.0171,-0.0164,1.2603,-1.0382,-2.3969,3.3511
7202,0.0222,-0.0117,1.2278,-1.0382,-2,3.4198
7222,0.0144,-0.0212,1.2151,-0.9084,-1.3969,3.6794
7242,0.0178,-0.0183,1.2349,-1.0229,-1.9542,3.5725
7262,0.0129,-0.0112,1.2449,-0.9542,-2.0076,3.4046
7282,0.0198,-0.02,1.2302,-0.9313,-1.5344,3.5267
7302,0.0183,-0.0134,1.2373,-0.7786,-1.5878,3.4656
7322,0.0105,-0.0234,1.2231,-0.5802,-1.9542,3.4962
7342,0.0134,-0.0183,1.2351,-0.3588,-1.8321,3.4046
7362,0.0249,-0.0198,1.2136,-0.4733,-1.5191,3.5038
7382,0.0242,-0.0222,1.2083,-0.4122,-1.6794,3.4809
7402,0.0161,-0.0156,1.2295,-0.5954,-1.7863,3.4275
7422,0.0205,-0.0215,1.2346,-0.7405,-2.1374,3.4427
7442,0.0278,-0.0249,1.2051,-0.1908,-1.8168,3.313
7462,0.0225,-0.0242,1.2441,-0.5954,-1.7786,3.626
7482,0.0339,-0.0244,1.2329,-0.4885,-1.8779,3.7023
7502,0.0229,-0.0195,1.2253,-0.3817,-1.626,3.5878
7522,0.0266,-0.0195,1.2346,-0.7405,-1.313,3.2519
7542,0.031,-0.0117,1.2168,-0.2137,-1.7634,3.4275
7562,0.0261,-0.0188,1.2473,-0.6031,-2.2748,3.5115
7582,0.0188,-0.019,1.2266,-0.5573,-2.0687,3.3664
7602,0.022,-0.0146,1.2383,-0.6031,-1.5573,3.6031
7622,0.0137,-0.0127,1.241,-0.2672,-1.4275,3.4275
7642,0.0127,-0.0081,1.2568,-0.3969,-1.7252,3.4885
7662,0.0193,-0.0061,1.2483,-0.4504,-2.0076,3.1679
7682,0.011,-0.0059,1.2546,-0.9924,-1.687,3.4504
7702,0.012,-0.009,1.2263,-0.4809,-1.1832,3.313
7722,0.0129,-0.0127,1.2407,-0.4275,-1.6565,3.542
7742,0.0051,-0.0068,1.2407,-0.8321,-1.7023,3.4427
7762,0.0034,-0.0063,1.2324,-0.6336,-1.6183,3.4656
7782,0.012,-0.0083,1.2454,-0.5496,-1.5191,3.5115
7802,0.0107,-0.0044,1.241,-0.6641,-1.6336,3.4122
7822,0.0159,-0.0137,1.2192,-0.4198,-1.5344,3.4046
7842,0.0193,-0.0183,1.2095,-0.3359,-1.6565,3.4046
7862,0.0156,-0.021,1.2361,-0.6565,-2,3.4504
7882,0.0078,-0.0205,1.2058,-0.4733,-1.8015,3.7557
7902,0.0159,-0.0107,1.2354,-0.8931,-2.0992,3.6031
7922,0.01,-0.0137,1.241,-0.8626,-2.0382,3.4046
7942,0.0212,-0.0205,1.2292,-0.7634,-2.2824,3.374
7962,0.0205,-0.0125,1.2339,-1.0076,-2.4122,3.3664
7982,0.0215,-0.0166,1.2258,-0.7405,-2.2214,3.6183
8002,0.0247,-0.0217,1.2317,-0.916,-2.0687,3.2901
8022,0.0154,-0.0173,1.2546,-0.8626,-2.1756,3.2366
8042,0.0232,-0.0127,1.2473,-0.7863,-2.2137,3.2977
8062,0.0173,-0.0156,1.2263,-0.7863,-2.0076,3.2977
8082,0.0273,-0.0215,1.2332,-0.8473,-2.1527,3.3817
8102,0.0161,-0.0098,1.2419,-1.084,-1.8779,3.6031
8122,0.0178,-0.019,1.2417,-0.7634,-1.6107,3.4504
8142,0.0149,-0.0178,1.2415,-0.458,-1.8779,3.4198
8162,0.0225,-0.0139,1.2231,-0.4351,-1.4885,3.7099
8182,0.019,-0.0171,1.2283,-0.6794,-1.084,3.4046
8202,0.021,-0.0212,1.2048,-0.3969,-1.2595,3.4122
8222,0.0151,-0.0115,1.2451,-0.4275,-1.7634,3.5649
8242,0.0215,-0.0171,1.2209,-0.3969,-1.6183,3.5344
8262,0.021,-0.0217,1.2354,-0.4198,-1.3893,3.4275
8282,0.0159,-0.0254,1.22,-0.3664,-1.4809,3.4809
8302,0.0178,-0.0198,1.21,-0.0916,-1.5267,3.458
8322,0.0176,-0.0327,1.1975,-0.0534,-1.7863,3.6565
8342,0.0171,-0.0234,1.2058,-0.374,-1.8931,3.458
8362,0.022,-0.021,1.2224,-0.1374,-1.8321,3.4275
8382,0.0227,-0.0193,1.2329,-0.4351,-2.1221,3.5115
8402,0.0229,-0.0168,1.2358,-0.542,-1.9466,3.2824
8422,0.021,-0.0146,1.2476,-0.4504,-1.6718,3.2977
8442,0.0134,-0.012,1.2319,-0.4351,-1.8855,3.4885
8462,0.0164,-0.0066,1.2441,-0.8931,-2.0763,3.2824
8482,0.0193,-0.0093,1.2366,-0.4275,-2.0611,3.5038
8502,0.0171,-0.0076,1.2322,-0.5115,-2.3664,3.3511
8522,0.0203,-0.0068,1.238,-0.9389,-1.9008,3.5802
8542,0.0146,-0.011,1.2317,-0.5191,-1.5038,3.374
8562,0.0122,-0.0105,1.2439,-0.4656,-1.5267,3.5573
8582,0.0142,-0.0132,1.2249,-0.6412,-1.5954,3.4504
8602,0.0088,-0.0088,1.2493,-0.687,-1.5191,3.2137
8622,0.0103,-0.0044,1.2576,-0.6794,-2.0763,3.8015
8642,0.0112,-0.0049,1.2395,-0.6565,-1.687,3.4504
8662,0.0161,-0.0232,1.2332,-0.6489,-1.4046,3.5954
8682,0.0095,-0.0173,1.2246,-0.6947,-1.3893,3.5344
8702,0.0078,-0.012,1.2415,-0.8092,-2.3817,3.4504
8722,0.0137,-0.0156,1.2087,-0.4733,-1.8855,3.374
8742,0.0154,-0.0193,1.2256,-0.7557,-1.9924,3.6031
8762,0.0178,-0.0212,1.2461,-1.145,-2.1603,3.6794
8782,0.0151,-0.009,1.249,-1.0153,-2.0992,3.4122
8802,0.0139,-0.0154,1.2476,-0.9008,-2.0611,3.3969
8822,0.02,-0.019,1.2209,-0.5954,-2.1298,3.4427
8842,0.0283,-0.0234,1.217,-0.6794,-2.3588,3.4427
8862,0.0283,-0.0244,1.2266,-1,-2.1221,3.5191
8882,0.0222,-0.0171,1.2371,-0.7634,-1.9084,3.4427
8902,0.0264,-0.0247,1.2263,-0.6947,-2.2443,3.374
8922,0.031,-0.0166,1.2495,-0.8244,-2.3282,3.4198
8942,0.0295,-0.0107,1.2434,-0.5649,-1.7099,3.458
8962,0.0276,-0.0166,1.2319,-0.9008,-1.5649,3.3893
8982,0.0171,-0.0193,1.2344,-0.8015,-1.8779,3.5267
9002,0.0178,-0.0168,1.23,-0.5496,-1.8779,3.4656
9022,0.0208,-0.0159,1.2217,-0.4962,-1.3664,3.3511
9042,0.0259,-0.0168,1.2314,-0.4351,-1.0458,3.6718
9062,0.0227,-0.0176,1.2185,-0.2901,-0.7863,3.5878
9082,0.0229,-0.0161,1.2275,-0.1832,-1.5573,3.5267
9102,0.0115,-0.0129,1.2307,-0.4809,-1.4962,3.5267
9122,0.0061,-0.0217,1.2251,-0.1374,-0.9389,3.3588
9142,0.0188,-0.0271,1.2004,0.0229,-1.7328,3.7252
9162,0.0173,-0.0208,1.2068,-0.0611,-1.8626,3.5954
9182,0.0188,-0.0142,1.2214,-0.4046,-1.9008,3.3893
9202,0.0168,-0.012,1.2139,-0.458,-1.687,3.374
9222,0.0229,-0.0203,1.2129,-0.374,-1.4351,3.4809
9242,0.0205,-0.0188,1.2036,-0.2748,-1.9008,3.2824
9262,0.02,-0.0171,1.2273,-0.2443,-1.9618,3.4427
9282,0.0171,-0.0076,1.2554,-0.5725,-1.9618,3.313
9302,0.0164,-0.011,1.2422,-0.7557,-1.7405,3.6107
9322,0.02,-0.0076,1.2446,-0.9389,-1.9924,3.4733
9342,0.0171,-0.0054,1.2505,-0.7863,-2.2519,3.4275
9362,0.0181,-0.0083,1.2449,-0.8931,-2.2595,3.5649
9382,0.0112,-0.009,1.2383,-0.9466,-2.1374,3.5038
9402,0.009,-0.0146,1.2383,-0.9389,-1.9389,3.2824
9422,0.0073,-0.0149,1.2297,-0.9542,-1.7786,3.4504
9442,0.0181,-0.0203,1.2334,-0.9084,-1.8473,3.3511
9462,0.0032,-0.002,1.2559,-0.8931,-1.8168,3.2901
9482,0.01,-0.0085,1.2517,-0.5725,-1.2977,3.6794
9502,0.012,-0.0078,1.2495,-0.2901,-1.6031,3.5802
9522,0.0093,-0.0154,1.2241,-0.3511,-1.7863,3.2824
9542,0.0039,-0.0146,1.2317,-0.8397,-1.6565,3.5115
9562,0.0061,-0.0125,1.2378,-0.771,-1.9008,3.5038
9582,0.0212,-0.0229,1.2126,-0.5725,-1.4275,3.458
9602,0.0127,-0.0171,1.2266,-0.7939,-1.8015,3.4885
9622,0.0149,-0.0198,1.2324,-0.6718,-2.3359,3.3969
9642,0.0151,-0.0154,1.23,-0.7252,-2.4809,3.3664
9662,0.0183,-0.0161,1.2227,-0.8015,-2.3053,3.5344
9682,0.0215,-0.0203,1.2139,-0.7099,-1.7557,3.687
9702,0.0251,-0.0139,1.2251,-0.9847,-1.8855,3.3588
9722,0.0186,-0.0142,1.2451,-0.687,-2.0382,3.2901
9742,0.0278,-0.0161,1.2292,-0.8092,-2.4656,3.5267
9762,0.0178,-0.0117,1.2515,-0.9084,-1.9618,3.374
9782,0.031,-0.0244,1.2341,-0.8092,-1.8473,3.6107
9802,0.0208,-0.0271,1.2297,-0.6412,-1.7939,3.4351
9822,0.0281,-0.0183,1.2285,-0.6031,-1.8244,3.4427
9842,0.0286,-0.0198,1.2346,-0.4122,-2.0458,3.6107
9862,0.0295,-0.0251,1.2109,-0.313,-1.8092,3.3588
9882,0.0234,-0.0156,1.2314,-0.4275,-1.3053,3.4962
9902,0.0151,-0.0161,1.2344,-0.6336,-1.6412,3.6031
9922,0.0203,-0.0217,1.2344,-0.5954,-1.626,3.542
9942,0.0107,-0.0215,1.2283,-0.4504,-1.3359,3.5496
9962,0.0146,-0.0203,1.2261,-0.313,-1.313,3.4046
9982,0.0212,-0.0208,1.2317,-0.3282,-1.458,3.4351
10002,0.0242,-0.0186,1.2437,-0.3282,-1.313,3.5267
10022,0.01,-0.0117,1.2327,0.0305,-1.5267,3.4809
10042,0.0154,-0.0181,1.2136,-0.2977,-1.4504,3.7328
10062,0.0164,-0.0203,1.2148,-0.458,-0.9924,3.4656
10082,0.0032,-0.0149,1.219,-0.5725,-1.4427,3.6565
10102,0.0007,-0.0085,1.2473,-0.4733,-2.2748,3.4122
10122,0.019,-0.0151,1.2234,-0.3282,-2.1145,3.1679
10142,0.0151,-0.0166,1.2405,-0.5954,-1.9313,3.4198
10162,0.0105,-0.0061,1.2407,-1.0534,-1.6031,3.2519
10182,0.0134,-0.0085,1.2375,-1.0534,-1.8626,3.458
10202,0.0188,-0.0081,1.2495,-0.5267,-2.771,3.5725
10222,0.0239,-0.0139,1.2268,-0.855,-2.4351,3.3511
10242,0.0129,-0.0076,1.2522,-0.9084,-1.2061,3.3664
10262,0.0171,-0.0122,1.2466,-0.5573,-1.542,3.3817
10282,0.0181,-0.011,1.231,-0.626,-2.5649,3.2748
10302,0.0154,-0.0144,1.2297,-0.916,-1.7252,3.4962
10322,0.0088,-0.009,1.2397,-1.1221,-1.5802,3.2901
10342,0.009,-0.0125,1.2351,-0.9389,-1.916,3.4122
10362,0.0093,-0.0071,1.2502,-0.8473,-1.458,3.3588
10382,0.0103,-0.0085,1.2568,-1.0611,-1.7405,3.458
10402,0.0122,-0.0129,1.2378,-0.7786,-2.6718,3.4427
10422,0.0146,-0.0176,1.2224,-0.7939,-1.4885,3.6107
10442,0.0132,-0.0173,1.2334,-0.771,-0.9924,3.4427
10462,0.0049,-0.0164,1.2429,-0.8168,-2.2595,3.3893
10482,0.012,-0.0186,1.2371,-0.855,-2.1679,3.4046
10502,0.0176,-0.0232,1.2312,-0.8092,-2.0763,3.3969
10522,0.0198,-0.0164,1.2263,-0.6718,-1.7939,3.7252
10542,0.0232,-0.0222,1.2422,-0.9237,-1.5267,3.2595
10562,0.0229,-0.0176,1.2327,-0.8855,-2.1069,3.4351
10582,0.0305,-0.0242,1.2385,-0.7252,-2.5115,3.3969
10602,0.0164,-0.0239,1.2441,-0.8626,-2.2366,3.2137
10622,0.0227,-0.0227,1.2434,-0.9618,-1.8702,3.4733
10642,0.0293,-0.0154,1.2307,-0.8931,-2.4198,3.458
10662,0.0325,-0.0161,1.2437,-0.7786,-1.9389,3.6565
10682,0.0254,-0.0212,1.2168,-0.5802,-1.9618,3.4427
10702,0.0273,-0.0107,1.2395,-0.7176,-1.8779,3.3664
10722,0.0269,-0.0181,1.2278,-0.687,-1.3435,3.2748
10742,0.0205,-0.0166,1.2385,-0.6183,-1.6336,3.4198
10762,0.0186,-0.0137,1.2419,-0.3435,-2.3359,3.5191
10782,0.0103,-0.021,1.2383,-0.5496,-1.2748,3.2901
10802,0.02,-0.0122,1.2261,-0.2901,-0.6565,3.5115
10822,0.021,-0.0154,1.2336,-0.2748,-1.7252,3.4885
10842,0.0198,-0.0063,1.2368,-0.313,-2.0382,3.4809
10862,0.0095,-0.0181,1.2214,-0.3206,-1.1527,3.5802
10882,0.0176,-0.0195,1.2173,-0.3969,-0.9466,3.4962
10902,0.0107,-0.0186,1.2253,-0.1298,-1.6947,3.3511
10922,0.0042,-0.0234,1.2329,-0.1756,-2.1069,3.3817
10942,0.0149,-0.021,1.2051,-0.458,-1.5725,3.3664
10962,0.0215,-0.0234,1.2087,-0.6947,-1.0611,3.4427
10982,0.019,-0.0161,1.2329,-0.4809,-1.5344,3.5649
11002,0.012,-0.0183,1.2224,-0.3053,-2.6183,3.3435
11022,0.0156,-0.0095,1.2495,-0.916,-2.313,3.542
11042,0.0164,-0.0195,1.2351,-0.7252,-1.2824,3.3969
11062,0.0168,-0.0181,1.2285,-0.7939,-1.7405,3.4275
11082,0.0081,-0.0093,1.24,-0.6794,-2.6947,3.4962
11102,0.01,-0.0076,1.2527,-1.1221,-2.3053,3.2748
11122,0.0161,-0.011,1.2485,-1.0687,-2,3.4122
11142,0.0125,-0.0098,1.2393,-0.8779,-1.6718,3.1832
11162,0.0134,-0.021,1.2324,-0.8779,-1.4733,3.4656
11182,0.01,-0.0046,1.2383,-0.8626,-2.1374,3.2443
11202,0.0105,-0.0049,1.2441,-1.0611,-2.1756,3.4809
11222,0.0098,-0.0125,1.2346,-0.9466,-1.8779,3.4046
11242,0.0132,-0.0098,1.2363,-0.9771,-1.5496,3.5115
11262,0.0176,-0.0056,1.2461,-1.0076,-1.8015,3.6107
11282,0.0198,-0.0181,1.24,-1.0992,-1.5954,3.5191
11302,0.0115,-0.0193,1.2361,-1.0229,-2.0458,3.5038
11322,0.0061,-0.02,1.2153,-1.0229,-1.626,3.4351
11342,0.0181,-0.0198,1.2256,-0.7634,-1.6412,3.4656
11362,0.02,-0.0227,1.2183,-0.8168,-2.4656,3.7939
11382,0.0215,-0.0183,1.2278,-0.771,-2.2901,3.4885
11402,0.0237,-0.0122,1.241,-0.7481,-1.9695,3.542
11422,0.0166,-0.0161,1.2495,-0.9466,-1.8244,3.4733
11442,0.021,-0.0181,1.2446,-1.0305,-2.2672,3.6412
11462,0.0247,-0.0225,1.2219,-0.5954,-2.0534,3.3282
11482,0.031,-0.0234,1.231,-0.7863,-2.2137,3.4351
11502,0.0232,-0.0203,1.2212,-0.7481,-2.0916,3.5954
11522,0.0315,-0.0242,1.2266,-0.5191,-1.7176,3.458
11542,0.0266,-0.0105,1.2498,-0.8244,-1.855,3.6031
11562,0.0186,-0.0112,1.2449,-0.5802,-1.8321,3.4275
11582,0.0063,-0.0149,1.2483,-0.5878,-1.8015,3.5496
11602,0.0164,-0.0149,1.2383,-0.5878,-1.4962,3.374
11622,0.0149,-0.0073,1.2456,-0.8092,-1.4427,3.3511
11642,0.0154,-0.0088,1.2197,-0.4122,-1.5954,3.3435
11662,0.0203,-0.0183,1.23,-0.687,-1.5267,3.4122
11682,0.0154,-0.0164,1.2292,-0.3817,-1.3282,3.4122
11702,0.0081,-0.0134,1.24,-0.2214,-1.3969,3.5267
11722,0.0061,-0.0181,1.2251,-0.3817,-1.3664,3.5267
11742,0.011,-0.0137,1.2312,-0.5038,-1.5878,3.5878
11762,0.0129,-0.0166,1.2058,-0.1069,-1.2137,3.4504
11782,0.0181,-0.022,1.21,-0.0611,-1.3817,3.6336
11802,0.01,-0.0129,1.2256,-0.5649,-1.5191,3.5191
11822,0.012,-0.0137,1.2434,-0.7023,-1.9695,3.4351
11842,0.0142,-0.0198,1.2285,-0.4962,-2.0992,3.4809
11862,0.0195,-0.0105,1.2327,-0.5954,-2.3588,3.4733
11882,0.0103,-0.0142,1.2253,-0.7099,-2.0534,3.4656
11902,0.0129,-0.0176,1.2317,-0.3817,-2.3206,3.4504
11922,0.0154,-0.0215,1.2268,-0.8168,-2.2519,3.4885
11942,0.0222,-0.0056,1.2542,-1.0763,-2.2901,3.4046
11962,0.0144,-0.0137,1.2471,-0.8473,-2.0534,3.4656
11982,0.019,-0.0127,1.2393,-0.8626,-2.3359,3.4122
12002,0.0171,-0.0117,1.2449,-0.9008,-2,3.4809
12022,0.011,-0.0137,1.2378,-1,-1.9695,3.4046
12042,0.011,-0.0171,1.2383,-1.0229,-1.8321,3.1832
12062,0.0112,-0.0103,1.2424,-1.0153,-2,3.3893
12082,0.012,-0.0049,1.2585,-1.0382,-1.5038,3.2977
12102,0.0139,-0.0107,1.2517,-1.0611,-1.6641,3.5573
12122,0.012,-0.0164,1.2322,-0.6489,-1.9466,3.3893
12142,0.0071,-0.0193,1.2417,-0.7634,-1.5191,3.4427
12162,0.0117,-0.0217,1.231,-0.855,-1.4656,3.4275
12182,0.0183,-0.0186,1.2427,-0.6107,-1.5649,3.4809
12202,0.0134,-0.0173,1.2346,-0.4809,-2.4809,3.458
12222,0.0232,-0.0151,1.2329,-0.687,-2.1756,3.4733
12242,0.0225,-0.0171,1.2205,-0.6031,-1.5954,3.5191
12262,0.0264,-0.0249,1.2207,-0.5496,-1.5267,3.2977
12282,0.0181,-0.0229,1.2368,-0.7786,-2.6183,3.4275
12302,0.0308,-0.0303,1.2217,-0.4962,-1.9084,3.4809
12322,0.0295,-0.0168,1.2297,-0.8473,-1.5954,3.458
12342,0.0278,-0.0215,1.228,-0.542,-1.9542,3.3664
12362,0.0261,-0.02,1.2251,-0.458,-2.1374,3.4275
12382,0.0254,-0.0159,1.2322,-0.5038,-1.9542,3.5954
12402,0.0159,-0.0198,1.2332,-0.7176,-2.5191,3.3893
12422,0.0239,-0.019,1.2168,-0.3511,-1.145,3.687
12442,0.0139,-0.0183,1.2393,-0.8931,-1.1756,3.5038
12462,0.0181,-0.0103,1.23,-0.4656,-1.9847,3.4427
12482,0.0159,-0.0144,1.2393,-0.3969,-2.1374,3.5878
12502,0.0195,-0.0112,1.2336,-0.8168,-1.1374,3.6947
12522,0.0193,-0.0168,1.2148,-0.3969,-1.3435,3.4351
12542,0.0215,-0.0168,1.2302,-0.458,-1.229,3.4504
12562,0.0095,-0.0181,1.2253,-0.2061,-0.9389,3.5191
12582,0.0132,-0.0212,1.2034,0.1756,-1.4351,3.4733
12602,0.021,-0.0291,1.1973,-0.0076,-1.3053,3.4733
12622,0.0083,-0.0164,1.228,-0.5573,-1.4733,3.6641
12642,0.0166,-0.0144,1.2375,-0.6565,-2.2137,3.3969
12662,0.0176,-0.0181,1.2292,-0.5649,-1.9313,3.5573
12682,0.0134,-0.022,1.1995,-0.3588,-1.3282,3.458
12702,0.0107,-0.0176,1.2275,-0.6794,-2.0916,3.4885
12722,0.0151,-0.0125,1.2476,-0.9313,-2.0534,3.5496
12742,0.0127,-0.0146,1.2473,-0.6412,-1.9618,3.458
12762,0.0195,-0.009,1.2451,-0.8702,-2.3359,3.2824
12782,0.0173,-0.0129,1.2317,-0.9084,-1.9618,3.1527
12802,0.0132,-0.0132,1.2449,-0.8931,-1.771,3.458
12822,0.0154,-0.0088,1.2444,-0.7939,-2.3511,3.4275
12842,0.0115,-0.0083,1.2629,-0.9695,-2.2366,3.3435
12862,0.0129,-0.0149,1.2415,-0.9466,-1.145,3.3969
12882,0.0024,-0.0078,1.2627,-0.8015,-2.7176,3.3588
12902,0.0266,-0.0085,1.2024,-0.5267,-0.9542,3.2901
12922,0.0312,0.0042,1.2556,-1.8626,-0.5573,9.6794
12942,0.1118,0.0317,1.2546,-2.5038,0.916,26.1832
12962,-0.1406,-0.0615,1.2771,-2.5725,-4.9847,30.6107
12982,0.0293,-0.0137,1.2092,-0.1985,-10.8092,25.6565
13002,-0.0098,-0.0054,1.2029,-2.4809,-0.5802,24.7023
13022,0.0017,-0.022,1.2371,1.0153,-10.0229,1.1756
13042,0.0027,-0.0332,1.2153,-0.7252,4.2137,-12.8702
13062,-0.0261,-0.0298,1.2258,0.145,1.771,-17.5191
13082,-0.1045,0.0166,1.3423,-3.1069,-15.4809,-42.9466
13102,0.1016,0.1174,1.5232,-43.3282,-39.0916,-42.1298
13122,0.146,-0.1777,1.0552,-60.8931,-52.1527,-24.9618
13142,0.0911,-0.2473,1.0242,-9.2519,-31.2672,-24.9084
13162,0.1816,-0.0186,1.4309,-33.5267,2.0687,-34.3282
13182,0.0303,-0.0383,1.532,-66.7252,17.1221,-39.4885
13202,-0.0088,-0.1165,1.3579,-32.7252,21.687,-44.3359
13222,-0.0386,-0.1084,1.4268,12.0076,5.0992,-24.3817
13242,-0.1506,-0.1045,1.4727,25.0382,-0.1221,-14.855
13262,-0.0251,-0.0244,1.4915,10.7176,4.9313,-10.1679
13282,0.0662,-0.0352,1.481,-2.8855,-30.4809,5.6947
13302,0.0891,-0.1013,1.4634,14.0458,-59.0458,9.8702
13322,0.0935,-0.135,1.1758,30.3893,-61.8779,-2.5496
13342,0.1497,-0.0205,1.1526,26.9084,-35.6565,-2.8779
13362,0.1345,-0.012,1.2434,9.7863,28.2366,6.8321
13382,0.1023,-0.1274,1.3784,-51.8931,61.8015,13.6412
13402,0.0891,-0.2129,1.209,-110.3664,66.4046,6.6336
13422,-0.0051,-0.2749,1.3057,-130.4886,38.6641,5.5573
13442,-0.1318,-0.3181,1.5046,-149.626,-1.1832,-4.229
13462,-0.084,-0.3337,1.3169,-156.8092,-28.8626,-3.5878
13482,-0.0134,-0.3115,1.0178,-158.0992,-38.5725,15.8779
13502,0.283,-0.3833,0.7131,-130.4046,-35.6412,31.916
13522,0.1394,-0.3618,0.7742,-83.7176,-26.7557,29.6565
13542,-0.0132,-0.3994,0.8687,-30.1985,-57.2137,9.687
13562,0.1841,-0.408,0.8618,-15.084,-45.0305,22.771
13582,0.2358,-0.373,0.8694,9.2824,-0.9542,71.2214
13602,0.1533,-0.3643,0.9929,50.8092,15.916,62.8473
13622,0.1245,-0.5017,0.9998,61.9847,-17.542,37.5267
13642,0.2415,-0.2681,1.1726,31.6565,21.8015,32.1985
13662,0.0339,-0.4192,0.9658,-80.0687,-49.3664,0.7328
13682,0.0437,-0.3291,1.2627,-131.7481,-42.9771,15.313
13702,0.0181,-0.4419,1.1416,-86.3588,7.4351,43.9618
13722,0.1223,-0.7839,1.2864,-6.8015,56.9924,33.1145
13742,-0.1741,-0.6265,1.3315,54.7176,18.3893,-14.0763
13762,-0.303,-0.4873,1.4919,40.5344,-39.0458,-67.2061
13782,-0.0305,-0.6123,1.3152,-3.2443,-61.6107,-104.0992
13802,0.095,-0.5344,1.3469,-48.9237,-56.0763,-157.6412
13822,0.2153,-0.3882,1.1624,-79.5191,-41.6031,-149.1679
13842,0.282,-0.4287,1.0364,-89.3511,-15.4427,-128.9542
13862,0.4602,-0.3521,0.9431,-84.145,30.458,-111.916
13882,0.4219,-0.4189,0.7883,-52.8321,60.3969,-79.4733
13902,0.2688,-0.2529,0.7195,-14.7405,83.9924,-73.1679
13922,0.2646,-0.0022,0.9294,-17.8702,97.6794,-81.3282
13942,0.2441,0.2468,1.0132,-40.2137,83.0687,-15.8168
13962,0.0051,0.502,1.5674,-101.626,-13.7023,52.2061
13982,-0.0518,0.8838,1.8862,-249.2977,-95.8931,34.2977
14002,0.3096,0.8713,1.4033,-250.1374,-46.5802,5.3435
14022,0.3281,0.7522,1.0886,-250.1374,13.5573,-7.4885
14042,-0.2739,0.3257,0.5305,-250.1374,-17.2901,26.145
14062,-0.5898,-0.2476,-0.0957,-250.1374,-120.1756,65.855
14082,-0.5181,-0.5569,-0.4924,-250.1374,-155.1908,64.458
14102,-0.0454,-0.9661,-0.928,-250.1374,-132.4733,28.4962
14122,0.3025,-1.499,-1.0908,-250.1374,-97.4046,34.6336
14142,0.2766,-1.54,-0.8848,-250.1374,-78.4885,74.1832
14162,0.2593,-1.8269,-0.9424,-203.9771,-55.1527,44.3817
14182,0.2522,-2,-1.3479,-99.3282,-9.145,-22.3511
14202,0.3193,-2,-1.3381,69.626,25.0382,-12.2748
14222,0.1487,-1.3635,-0.7832,177.9771,13.3893,9.6489
14242,0.0806,-1.4124,-0.8142,245.1298,-17.7481,42.9771
14262,0.0449,-1.6401,-0.7915,250.1298,-13.5725,12.3282
14282,0.0515,-1.3848,-0.7344,250.1298,21.6336,-72.2748
14302,0.2678,-0.7004,-0.624,250.1298,67.1145,-116.1603
14322,0.1357,-0.1658,-0.2437,250.1298,115.542,-55.6336
14342,-0.0967,-0.3281,0.0525,250.1298,108.9771,14.458
14362,0.1812,-0.3586,0.1187,250.1298,85.0382,35.2748
14382,0.2812,-0.0383,0.2476,250.1298,79.5573,60.6641
14402,0.1956,0.2712,0.7739,250.1298,52.9237,71.7023
14422,0.2883,0.7649,1.4651,250.1298,29.8397,102.4046
14442,0.4077,0.7542,1.9999,111.8168,33.5802,159.145
14462,-0.0518,0.4531,1.9999,-15.7634,56.8244,156.687
14482,-0.5037,0.2812,1.9999,-180.5878,57.4275,75.5115
14502,-0.582,0.3586,1.9999,-250.1374,28.5267,-0.2214
14522,-0.616,0.2979,1.5002,-250.1374,-3.1985,-29.7176
14542,-0.7808,-0.0178,0.5518,-250.1374,-36.4275,-54.145
14562,-0.7065,-0.7056,-0.3472,-250.1374,-30.2824,-145.4733
14582,0.1062,-0.4514,-0.4204,-250.1374,18.9618,-206.8931
14602,0.7271,-0.5635,-0.5442,-250.1374,54.458,-167.6183
14622,0.843,-0.7454,-0.4705,-250.1374,-6.9618,-52.0916
14642,0.1804,-0.8621,-0.781,-250.1374,-103.4962,85.8321
14662,-0.0591,-0.9851,-1.1504,-177.5954,-92.0916,57.6794
14682,0.1602,-1.0496,-1.0349,-163.0229,-15.1145,24.7023
14702,0.1675,-1.3999,-1.0122,-127.8092,18.0305,28.084
14722,0.0295,-1.5249,-1.0503,-41.0229,20.0458,-6.9847
14742,0.0225,-1.5793,-1.0872,70.3359,21.7939,-43.5191
14762,0.1824,-1.1648,-1.1401,183.8397,13.084,-45.2061
14782,0.2439,-0.8506,-0.9241,250.1298,0.4809,-16.6794
14802,0.2422,-0.875,-0.8374,250.1298,13.1221,11.3511
14822,0.2212,-1.2209,-0.8706,250.1298,23.7405,-0.0763
14842,0.228,-1.0173,-0.8567,250.1298,12.7405,-32.4656
14862,0.3281,-0.364,-0.6873,250.1298,19.1527,-11.0382
14882,0.3435,-0.1099,-0.2944,250.1298,53.0611,67.5267
14902,0.2615,-0.1345,0.0491,250.1298,73.7634,110.7023
14922,0.3022,-0.0608,0.1292,250.1298,72.0229,120.1145
14942,0.3062,0.2556,0.322,250.1298,92.8168,112.9542
14962,0.0464,0.8694,0.7769,250.1298,131.3588,102.3359
14982,-0.0627,1.0518,1.6472,250.1298,172.542,113.1221
15002,-0.2942,0.6682,1.8464,199.4351,144.687,129.4275
15022,-0.5913,0.2803,1.7419,132.8244,83.4046,134.5649
15042,-0.7485,0.115,1.8982,79.6183,44.7557,86.9313
15062,-0.9006,0.208,1.9999,6.7634,29.9695,11.3206
15082,-0.9221,0.2688,1.9999,-103.0611,-25.8397,-4.7557
15102,-0.9216,0.3027,1.9999,-227.0382,-91.9618,-15.0382
15122,-0.7798,0.363,1.9758,-250.1374,-125.8702,-53.1985
15142,-0.7551,0.375,1.5361,-250.1374,-155.5954,-86.0305
15162,-0.7642,0.3284,0.9319,-250.1374,-189.2366,-127.6718
15182,-0.4958,0.2222,0.3115,-250.1374,-189.855,-158.4733
15202,-0.0588,0.0828,-0.1541,-250.1374,-160.0458,-158.0458
15222,0.5061,-0.2537,-0.2778,-250.1374,-107.2901,-156.1145
15242,0.7859,-0.21,-0.3877,-250.1374,-65.4046,-123.6565
15262,0.6538,-0.4519,-0.6421,-250.1374,-57.5038,-66.6565
15282,0.3184,-0.8079,-0.9832,-250.1374,-33.3588,-48.2824
15302,0.5002,-1.3293,-1.1033,-239.0076,-7.7023,-20.5573
15322,0.5374,-1.6965,-0.9031,-117.2519,3.5802,43.4427
15342,0.2031,-1.6101,-0.5911,0.0153,-20.0153,20.8626
15362,0.3762,-1.5925,-0.9084,134.3359,-39.7786,-2.9313
15382,0.6978,-1.3799,-1.0847,250.1298,-20.5267,24.3588
15402,0.7068,-0.925,-0.7922,250.1298,3.8473,55.5725
15422,0.6514,-0.6443,-0.4668,250.1298,42.8015,88.2214
15442,0.4282,-0.668,-0.0813,250.1298,60.5802,125.458
15462,0.1143,-0.4771,0.1936,250.1298,41.1603,126.4046
15482,0.0625,0.0581,0.1794,250.1298,57.0229,131.7328
15502,0.1951,0.519,0.5994,250.1298,124.4351,159.145
15522,0.1487,0.6021,0.7891,250.1298,143.916,165.1069
15542,-0.1001,0.6567,1.0867,250.1298,190.9695,125.3817
15562,-0.6003,0.5615,1.3484,250.1298,182.2366,49.5954
15582,-0.8159,0.23,1.4534,142.7405,138.0458,-6.0076
15602,-0.6775,0.0344,1.3142,91.2672,98.2214,-3.8473
15622,-0.4558,-0.0081,1.2844,63.7176,81.5115,-15.084
15642,-0.5408,-0.02,1.2813,46.8321,55.5038,-41.0992
15662,-0.8633,0.1714,1.4458,10.0992,-4.5802,-23.9542
15682,-0.7666,0.0615,1.427,-19.9237,-53.1679,-17.4733
15702,-0.5273,-0.1758,1.3882,-64.8397,-25.4504,-69.771
15722,-0.2429,-0.4385,1.1938,-100.7099,-34.0687,-118.0153
15742,-0.3838,-0.4631,1.1628,-107.5038,-54.3359,-177.5802
15762,-0.3169,-0.3196,1.2629,-117.0458,-75.9695,-178.4122
15782,-0.2043,-0.2146,1.3262,-117.3282,-68.5267,-128.1298
15802,-0.053,-0.5198,1.0217,-96.0382,-43.0076,-53.3969
15822,0.0085,-0.6318,0.866,-47.7252,-19.4275,-41.3664
15842,-0.1538,-0.5811,0.9951,-12.5344,4.771,-59.5115
15862,-0.1958,-0.5039,1.1694,-29.9389,-8.2977,-60.7863
15882,-0.0569,-0.5864,1.0168,-6.3359,-27.6947,-47.2519
15902,0.0354,-0.6255,0.7932,38.0153,-12.6489,-37.9466
15922,-0.2168,-0.3909,0.917,57.916,21.8321,-57.5344
15942,-0.2529,-0.1787,1.325,14.9389,3.626,-53.9542
15962,-0.0356,-0.3457,1.072,-33.0458,-18.8321,-19.3893
15982,-0.0754,-0.5959,1.1699,-27.5114,9.084,31.916
16002,-0.3252,-0.7573,1.1704,-7.8779,7.1679,32.2824
16022,-0.1885,-0.4778,1.0476,2.229,-24.1756,2.1145
16042,-0.071,-0.3318,1.1582,-28.0611,-13.2824,16.6641
16062,-0.1704,-0.5657,1.4138,-151.6336,-24.4198,9.7023
16082,-0.0737,0.0671,1.9999,38.1603,12.6412,43.0611
16102,-0.114,-0.7834,1.2644,21.0229,-30.6565,35.9466
16122,-0.0422,-0.5447,1.1484,14.2977,-35.5344,43.3817
16142,0.0298,-0.4358,0.9226,32.7481,-124.3588,70.5267
16162,0.0684,-0.4626,1.1521,99.7328,-198.6718,76.5343
16182,-0.0229,-0.5891,1.3835,68.8931,-184.3512,78.8779
16202,-0.0178,-0.5225,1.1768,51.084,-85.7863,53.145
16222,-0.1243,-0.3506,1.1157,57.2443,-10.6489,24.5954
16242,0.0281,-0.3381,1.1038,64.6947,-15.7023,29.3893
16262,-0.0381,-0.3911,1.3284,61.3282,-10.6565,26.2061
16282,0.054,-0.342,1.3267,31.8168,-0.0305,20.6183
16302,-0.0178,-0.3289,1.1423,24.5038,-5.4046,19.8244
16322,0.0071,-0.3337,1.1187,37.5802,-2.9924,5.542
16342,0.0862,-0.291,1.1951,43.9466,-2.4656,9.9466
16362,-0.0503,-0.3242,0.9822,54.6412,0.7328,13.9237
16382,0.043,-0.2952,1.0078,94.0992,2.9847,2.0153
16402,-0.0959,-0.2417,1.0276,125.8855,8,-1.5878
16422,0.031,0.0081,1.9158,78.9084,-4.5725,7.3817
16442,-0.0024,-0.1746,1.5144,5.2901,-2.2214,6.4122
16462,-0.0215,-0.2153,1.0854,10.8092,1.2519,-12.4656
16482,-0.083,-0.2449,0.9429,51.5115,30.8855,-19.855
16502,-0.0208,-0.1306,1.2456,63.6031,22.9008,-18.2595
16522,0.032,-0.1116,1.1582,61.7786,-16.5191,-10.687
16542,0.4333,-0.2502,0.562,64.1985,-74.084,10.8015
16562,0.1152,-0.0623,1.1992,22.2366,-21.4427,15.1221
16582,0.1782,-0.0403,1.3389,-13.0687,10.229,23.5267
16602,0.0264,-0.1021,1.1516,-5.8702,-0.0458,32.7939
16622,-0.0361,-0.1086,1.2261,1.4885,0.229,17.1832
16642,-0.0312,-0.0881,1.1875,3.2137,0.5802,13.1832
16662,0.0566,-0.0955,1.2439,5.0763,-1.4275,10.3282
16682,0.0244,-0.0796,1.2424,5.1985,-0.8779,6.5115
16702,0.0505,-0.0725,1.1675,10.2748,-3.8473,6.9771
16722,0.0408,-0.0847,0.8975,26.1985,6.0458,11.8626
16742,0.1057,-0.168,0.8005,100.2595,-1,15.3359
16762,0.0325,0.0603,1.4214,80.4122,-18.7099,34.458
16782,0.1909,0.0042,1.0886,6.6031,10.542,23.4886
16802,-0.0132,-0.0352,1.2278,-4.8626,10.4962,17.0229
16822,-0.0249,-0.0261,1.2043,-0.7863,3.0992,4.7786
16842,-0.0139,-0.021,1.2087,-0.1908,-0.8702,3.374
16862,0.0271,-0.0171,1.2156,0.8397,-6.3359,-5.7863
16882,0.0532,-0.0027,1.2456,-1.1298,0.1985,7.1908
16902,0.1392,0.0347,1.1982,-3.2443,6.6565,23.5573
16922,0.0742,0.0166,1.2085,-7.1908,14.5954,38.3588
16942,0.0317,0.0022,1.22,-6.626,9.2595,48.5649
16962,-0.0193,-0.0139,1.2578,-5.3969,-2.4198,51.5802
16982,-0.0356,-0.0227,1.261,-1.9084,-13.4504,48.8397
17002,-0.0149,-0.0315,1.2156,0.3435,-19.6336,43.2977
17022,0.0391,-0.0137,1.1863,0.4122,-18.1145,37.9695
17042,0.0112,-0.0261,1.2383,-1.9695,-9.9084,30.7786
17062,0.0198,-0.02,1.2727,-3.0229,0.1145,25.6336
17082,0.0134,-0.0461,1.218,-3.0076,6.9542,18.6031
17102,-0.0071,-0.0369,1.2317,-3.6183,5.4427,11.2595
17122,-0.0059,-0.0354,1.2456,-1.313,-0.4427,6.5725
17142,0.0354,-0.0176,1.2544,-0.1298,-5.1908,3.5191
17162,0.0447,-0.0156,1.2507,-0.0534,-5.1908,3.6412
17182,0.0508,-0.0129,1.2319,-0.7252,-1.5802,3.4733
17202,0.0386,-0.0107,1.2446,-1.458,1.4122,3.4656
17222,0.0286,-0.0178,1.2385,-1.2977,1.4351,3.4122
17242,0.0278,-0.0154,1.2563,-0.8397,-1.2061,3.2901
17262,0.0317,-0.0212,1.2473,-0.3588,-2.5878,3.4504
17282,0.0281,-0.0186,1.2363,-0.3511,-2.7176,3.3969
17302,0.031,-0.0227,1.2278,-0.4046,-1.8779,3.4885
17322,0.0305,-0.0239,1.2188,-0.9237,-0.5115,3.3969
17342,0.0286,-0.0271,1.229,-0.7939,0.4122,3.4198
17362,0.0242,-0.0278,1.2397,-0.5954,-0.2443,3.4427
17382,0.0298,-0.0264,1.2224,-0.1756,-2.3817,3.3817
17402,0.032,-0.0239,1.2212,-0.0687,-3.2061,3.4733
17422,0.04,-0.0242,1.2192,-0.3969,-2.5954,3.3435
17442,0.0437,-0.0227,1.2329,-0.6947,-1.2366,3.4351
17462,0.0359,-0.0215,1.2209,-0.9084,-0.9466,3.458
17482,0.0315,-0.0227,1.2197,-0.6336,-1.5649,3.6565
17502,0.0298,-0.0176,1.2256,-0.4046,-2.9466,3.6794
17522,0.0222,-0.0122,1.2439,-0.5038,-2.7634,3.5038
17542,0.03,-0.0112,1.2424,-0.916,-1.6489,3.3817
17562,0.0383,-0.0129,1.228,-0.9389,-1.0611,3.4351
17582,0.0381,-0.0146,1.2407,-0.9695,-1.2824,3.4885
17602,0.0288,-0.0166,1.2385,-0.5267,-2.1756,3.4809
17622,0.0352,-0.0151,1.2458,-0.5573,-2.0153,3.5038
17642,0.031,-0.0166,1.2405,-0.6336,-1.7176,3.5878
17662,0.0195,-0.0183,1.2351,-0.8702,-1.1527,3.5954
17682,0.0229,-0.0154,1.2253,-0.7634,-1.458,3.5878
17702,0.0212,-0.0112,1.2222,-0.7176,-1.4427,3.4656
17722,0.0215,-0.011,1.2432,-0.7634,-2.0763,3.5191
17742,0.0251,-0.012,1.2278,-0.7023,-2.1832,3.3893
17762,0.02,-0.0171,1.2307,-0.4656,-1.9466,3.4809
17782,0.0154,-0.0151,1.2043,-0.4885,-2.2519,3.458
17802,0.0215,-0.0212,1.23,-0.6336,-2.2977,3.4809
17822,0.0332,-0.0103,1.2441,-0.8244,-1.3282,3.542
17842,0.0339,-0.0239,1.2151,-0.8244,-1.3969,3.4504
17862,0.0327,-0.0154,1.2402,-0.8092,-1.5802,3.7634
17882,0.0266,-0.022,1.2288,-0.5038,-2.2672,3.4733
17902,0.0281,-0.0198,1.2324,-0.7786,-2.1145,3.7023
17922,0.032,-0.0232,1.2461,-0.9618,-0.8168,3.542
17942,0.0334,-0.0166,1.2366,-0.8626,-1.0076,3.4809
17962,0.031,-0.0266,1.2283,-0.5878,-2.2824,3.6183
17982,0.0369,-0.0183,1.2446,-0.7252,-2.771,3.3893
18002,0.0293,-0.0171,1.2463,-0.771,-2.3282,3.3588
18022,0.0405,-0.0159,1.2559,-0.6412,-1.4198,3.5802
18042,0.0281,-0.0198,1.238,-0.6641,-1.5191,3.3893
18062,0.0227,-0.0198,1.2336,-0.8092,-1.6794,3.4733
18082,0.0347,-0.0237,1.2427,-0.4885,-2.2214,3.5267
18102,0.0369,-0.0151,1.2354,-0.8015,-1.8855,3.4885
18122,0.03,-0.022,1.2383,-0.5115,-1.2901,3.4351
18142,0.0298,-0.0256,1.2297,-0.6336,-1.1145,3.6489
18162,0.0312,-0.0251,1.2227,-0.4962,-1.4275,3.6489
18182,0.0256,-0.0222,1.2173,-0.3282,-1.5496,3.6183
18202,0.0281,-0.0193,1.2522,-0.6412,-1.145,3.5649
18222,0.0266,-0.0225,1.2234,-0.4885,-0.9924,3.4809
18242,0.0312,-0.0239,1.2043,-0.313,-1.2901,3.4809
18262,0.031,-0.0168,1.2349,-0.542,-1.9695,3.4198
18282,0.0288,-0.022,1.2083,-0.313,-2.3282,3.4962
18302,0.0288,-0.0283,1.2148,-0.7252,-1.2748,3.5649
18322,0.0308,-0.022,1.2288,-0.7557,-1.6641,3.4275
18342,0.0376,-0.0188,1.2271,-0.5725,-1.9771,3.5038
18362,0.0337,-0.0161,1.2339,-0.458,-2.5344,3.6641
18382,0.0364,-0.0164,1.2471,-0.6336,-2.5191,3.5115
18402,0.0359,-0.0203,1.2344,-0.687,-1.7176,3.3206
18422,0.0293,-0.0125,1.2395,-0.7252,-1.0992,3.5267
18442,0.0359,-0.0161,1.2261,-0.687,-2.0153,3.4275
18462,0.0234,-0.019,1.2195,-0.3435,-2.3359,3.5115
18482,0.0334,-0.0142,1.2454,-0.6794,-1.8931,3.5267
18502,0.0259,-0.0132,1.2361,-0.4885,-1.7557,3.4351
18522,0.0295,-0.0137,1.2307,-0.5954,-1.1679,3.374
18542,0.0132,-0.0139,1.2197,-0.458,-1.4656,3.2977
18562,0.0249,-0.0127,1.2334,-0.4733,-1.8779,3.5267
18582,0.0232,-0.0142,1.2278,-0.4809,-1.6718,3.3664
18602,0.0237,-0.0227,1.2209,-0.4427,-1.2214,3.5878
18622,0.0159,-0.0225,1.2043,-0.458,-1.6641,3.4656
18642,0.0266,-0.0181,1.23,-0.6183,-1.9847,3.5115
18662,0.0271,-0.0247,1.2285,-0.6107,-1.9084,3.5725
18682,0.0295,-0.0266,1.231,-0.5038,-1.6107,3.542
18702,0.02,-0.0227,1.2205,-0.5496,-1.1679,3.6565
18722,0.0283,-0.0249,1.2295,-0.8244,-1.5344,3.5038
18742,0.0295,-0.0203,1.2163,-0.7939,-2.1527,3.2519
18762,0.0342,-0.0215,1.2319,-0.8321,-2.084,3.4885
18782,0.0344,-0.0229,1.2417,-0.8168,-1.5878,3.542
18802,0.0378,-0.0212,1.2415,-1.0916,-1.9313,3.5954
18822,0.0388,-0.0266,1.2302,-0.6794,-2.0916,3.4656
18842,0.0413,-0.0212,1.2585,-0.8702,-2.0763,3.5725
18862,0.032,-0.0149,1.2314,-0.8397,-2.1679,3.313
18882,0.0354,-0.0134,1.2598,-0.8168,-1.7252,3.4351
18902,0.0334,-0.0154,1.2278,-0.7023,-1.8473,3.458
18922,0.0371,-0.0193,1.2207,-0.5191,-1.8702,3.4885
18942,0.0364,-0.0105,1.2498,-0.7939,-1.7405,3.3282
18962,0.0288,-0.0186,1.241,-0.7099,-1.626,3.1985
18982,0.0303,-0.0154,1.2417,-0.626,-1.5344,3.4275
19002,0.0251,-0.0215,1.2371,-0.626,-1.4656,3.3206
19022,0.0215,-0.0173,1.22,-0.3206,-1.8397,3.5267
19042,0.0276,-0.0183,1.2424,-0.6641,-1.2824,3.4885
19062,0.0278,-0.021,1.2185,-0.2901,-1.084,3.5191
19082,0.0303,-0.0161,1.2185,-0.4809,-1.2595,3.5878
19102,0.0315,-0.0225,1.2307,-0.4427,-1.771,3.4427
19122,0.0288,-0.0286,1.2163,-0.2061,-2,3.7405
19142,0.0217,-0.0261,1.2148,-0.3969,-1.5649,3.3893
19162,0.0254,-0.0222,1.2239,-0.4275,-1.4046,3.6183
19182,0.0291,-0.0205,1.2256,-0.4046,-1.8473,3.2824
19202,0.0291,-0.0212,1.2292,-0.5802,-2.1374,3.5496
19222,0.0413,-0.0225,1.2236,-0.6641,-1.8779,3.7328
19242,0.0339,-0.0242,1.2407,-0.8092,-1.3435,3.4122
19262,0.0254,-0.0217,1.2346,-0.687,-1.3817,3.7176
19282,0.0278,-0.0127,1.2461,-0.7099,-2.3053,3.4198
19302,0.0264,-0.0183,1.2241,-0.4885,-3.0687,3.3969
19322,0.0237,-0.0159,1.2449,-0.6031,-1.8168,3.5344
19342,0.0322,-0.0232,1.2236,-0.8702,-0.9237,3.5038
19362,0.0249,-0.0046,1.2415,-0.5725,-1.4656,3.458
19382,0.0276,-0.0176,1.2261,-0.3282,-2.1221,3.2748
19402,0.0305,-0.0164,1.2466,-0.6794,-1.9924,3.458
19422,0.0261,-0.0078,1.24,-0.9237,-1.3588,3.2595
19442,0.0261,-0.0222,1.2317,-0.4733,-1.2366,3.4198
19462,0.0249,-0.0356,1.2053,-0.6107,-0.8626,3.5802
19482,0.0298,-0.0034,1.2234,-0.5878,-1.8931,3.4962
19502,0.0273,-0.0276,1.2278,-0.3588,-2.458,3.2748
19522,0.0198,-0.0317,1.2249,-0.5573,-1.1832,3.5649
19542,0.0244,-0.01,1.2239,-0.5649,-1.8092,3.4351
19562,0.0129,-0.0359,1.2188,-0.6183,-1.9389,3.458
19582,0.0183,-0.0115,1.24,-0.9237,-1.2061,3.5344
19602,0.0295,-0.0237,1.231,-0.4885,-2.1756,3.5191
19622,0.0293,-0.0281,1.2336,-0.8015,-1.8626,3.5878
19642,0.031,-0.0117,1.2292,-0.8397,-2.2748,3.4198
19662,0.0364,-0.0376,1.2278,-0.5954,-2.3664,3.5038
19682,0.0281,-0.0166,1.2493,-0.7863,-1.1832,3.5496
19702,0.033,-0.0125,1.2502,-0.7176,-1.5802,3.3817
19722,0.0303,-0.0242,1.2285,-0.5038,-2.542,3.4962
19742,0.0261,-0.0054,1.2478,-0.8321,-2.542,3.4809
19762,0.0354,-0.0193,1.251,-0.7252,-1.7557,3.3359
19782,0.0393,-0.0176,1.2463,-0.7557,-1.1221,3.3282
19802,0.0291,-0.0127,1.2463,-0.6565,-1.7939,3.4504
19822,0.032,-0.0315,1.2258,-0.4046,-1.9542,3.626
19842,0.0291,-0.0154,1.2405,-0.1527,-2.4275,3.374
19862,0.0317,-0.0139,1.2395,-0.8168,-1.1221,3.5649
19882,0.019,-0.0168,1.2366,-0.8321,-0.5725,3.5573
19902,0.0322,-0.0266,1.2156,-0.2748,-2.1374,3.6412
19922,0.0264,-0.0188,1.2371,-0.5267,-1.9008,3.5344
19942,0.0205,-0.0232,1.2241,-0.5344,-1.3435,3.5267
19962,0.0232,-0.0244,1.2192,-0.7786,-1.1756,3.5115
19982,0.0217,-0.0156,1.2288,-0.5267,-1.9542,3.4885
20002,0.0266,-0.0225,1.2148,-0.6947,-2.1374,3.6794
20022,0.0239,-0.0242,1.2251,-0.4275,-1.7252,3.3435
20042,0.0259,-0.0164,1.2141,-0.7557,-1.4885,3.3817
20062,0.0303,-0.0225,1.2305,-0.8397,-1.7863,3.4427
20082,0.0312,-0.0242,1.2156,-0.3969,-2.6794,3.3969
20102,0.0254,-0.0303,1.2141,-0.8702,-1.6336,3.542
20122,0.0225,-0.0203,1.2219,-0.7023,-1.7252,3.2901
20142,0.0249,-0.0134,1.2449,-0.6489,-2.5267,3.5878
20162,0.0361,-0.0195,1.2415,-0.8855,-1.8397,3.4427
20182,0.0269,-0.019,1.2434,-0.9847,-1.4046,3.4733
20202,0.0276,-0.0164,1.2454,-0.7405,-2.3588,3.4275
20222,0.0317,-0.0149,1.2371,-0.9695,-2.1527,3.2901
20242,0.0281,-0.0181,1.2456,-0.7786,-1.4733,3.5038
20262,0.0232,-0.0122,1.2261,-0.7405,-1.3359,3.3588
20282,0.0249,-0.0168,1.228,-0.7557,-1.4122,3.5496
20302,0.0247,-0.0098,1.2424,-0.4046,-2.084,3.3817
20322,0.0303,-0.0127,1.2256,-0.3435,-2.1679,3.6412
20342,0.0229,-0.0249,1.2153,-0.7099,-1.2672,3.3893
20362,0.0266,-0.02,1.2256,-0.7023,-1.1374,3.4733
20382,0.0234,-0.0212,1.2214,-0.5191,-1.9771,3.5954
20402,0.0154,-0.0273,1.2261,-0.4885,-1.9542,3.313
20422,0.0249,-0.0273,1.2092,-0.6183,-1.7176,3.3817
20442,0.0232,-0.0193,1.2271,-0.5267,-1.7099,3.3435
20462,0.0271,-0.0225,1.2415,-0.855,-1.855,3.4351
20482,0.0315,-0.0195,1.2361,-0.7863,-2.0534,3.4656
20502,0.0281,-0.0239,1.2207,-0.7328,-1.916,3.2672
20522,0.0264,-0.0208,1.2449,-0.7176,-1.3817,3.458
20542,0.03,-0.02,1.2332,-0.5878,-1.9695,3.4122
20562,0.0291,-0.021,1.2415,-0.7939,-2.0458,3.7176
20582,0.0278,-0.0215,1.2253,-1.0458,-1.3969,3.4504
20602,0.0393,-0.0154,1.2375,-1.1374,-1.3893,3.3053
20622,0.0354,-0.0198,1.2419,-0.8397,-2.084,3.4198
20642,0.0325,-0.0208,1.2554,-0.4885,-2.1145,3.4885
20662,0.0398,-0.0278,1.2534,-0.5954,-1.8855,3.5649
20682,0.0317,-0.0288,1.2449,-0.687,-2.0763,3.542
20702,0.031,-0.0183,1.2495,-0.6565,-1.7634,3.5496
20722,0.0286,-0.0144,1.2556,-0.4733,-1.4198,3.542
20742,0.0288,-0.0249,1.2385,-0.7176,-1.1756,3.6031
20762,0.0232,-0.0173,1.2295,-0.2672,-1.5878,3.5267
20782,0.0249,-0.0188,1.2336,-0.3817,-1.8244,3.2519
20802,0.02,-0.0264,1.2078,-0.3435,-1.7634,3.4809
20822,0.0232,-0.019,1.2214,-0.6031,-1.1221,3.5496
20842,0.0186,-0.0198,1.2256,-0.6336,-1.2824,3.4504
20862,0.0225,-0.0239,1.2085,-0.4427,-2.2366,3.3588
20882,0.0286,-0.0298,1.2075,-0.2977,-2.0305,3.542
20902,0.0164,-0.0225,1.2188,-0.687,-1.7634,3.4198
20922,0.0205,-0.0244,1.2195,-0.5115,-1.9771,3.4962
20942,0.0264,-0.021,1.231,-0.5191,-2.4198,3.4656
20962,0.0342,-0.0186,1.2195,-0.5267,-2.6031,3.3359
20982,0.0229,-0.0205,1.2253,-0.6336,-2.0687,3.5191
21002,0.0352,-0.02,1.2224,-0.8779,-1.4733,3.3206
21022,0.0298,-0.0168,1.2422,-0.9695,-1.6794,3.4046
21042,0.0361,-0.0176,1.2195,-0.5573,-2.1374,3.4504
21062,0.0354,-0.0127,1.2439,-1,-1.9771,3.3206
21082,0.0295,-0.0151,1.2539,-1.1298,-1.1603,3.3664
21102,0.0303,-0.0208,1.2341,-1.0153,-1.5954,3.3053
21122,0.0227,-0.0166,1.2607,-0.9389,-1.2672,3.3359
21142,0.0327,-0.0161,1.228,-1,-1.374,3.9237
21162,0.0146,-0.022,1.2485,-0.9313,-1.7405,5.0382
21182,-0.0061,-0.0212,1.2971,-3.3282,0.2366,4.1679
21202,0.0164,-0.0173,1.3008,0.1756,-1.6641,3.4885
21222,0.7117,0.2568,1.2925,-1.6031,5.6565,23.3664
21242,-1.0989,-0.5222,1.3613,-27.5344,-22.0611,-81.5496
21262,0.2361,0.0762,1.1292,-15.4504,-4.8168,-107.5191
21282,0.1982,-0.0266,1.2126,-15.4656,0.3511,-48.6336
21302,-0.1101,-0.1785,1.4219,-26.0687,-0.9008,-64.8779
21322,-0.0542,-0.3613,1.4922,-41.9008,-10.8092,-75.6947
21342,0.0012,-0.2698,1.6299,-88.5573,-59.855,-81.5038
21362,0.2271,-0.2158,1.575,-156.8397,-23.8397,-96.5649
21382,0.4099,-0.115,1.6018,-193.0992,48.2824,-59.626
21402,-0.1802,-0.5845,1.5127,-210.8702,68.6718,-30.0382
21422,-0.1987,-0.7444,1.3748,-183.3817,67.3435,-7.5115
21442,-0.0317,-0.5227,1.1172,-100.3969,44,26.458
21462,-0.0703,-0.5571,1.6294,-59.6947,23.3282,57.4198
21482,0.0408,-0.6406,1.3298,-75.9008,5.8473,76.9695
21502,-0.1125,-0.6265,0.9189,-66.7023,22.8092,47.3511
21522,-0.1165,-0.4541,1.0901,-61.4275,13.4275,14.8015
21542,-0.0862,-0.51,1.3066,-116.6565,-30.0687,-5.6183
21562,0.1189,-0.6543,1.22,-198.8321,-61,-18.7481
21582,0.2676,-0.3665,0.6418,-185.8015,-67.8779,-15.5802
21602,0.1951,-0.6987,0.5085,-86.3664,20.6565,-13.5878
21622,-0.1321,-0.7463,0.9265,-105.4809,8.8779,-41.4046
21642,0.3008,-0.4966,0.8398,-80.6489,23.2061,23.5114
21662,0.1448,-0.5615,1.0825,-50.458,17.1374,67.6718
21682,0.2334,-0.5852,0.9297,14.8244,26.3817,90.771
21702,-0.0042,-0.8992,0.9409,73.7328,46.626,87.9618
21722,-0.6638,-0.8206,1.2915,75.4351,58.6565,57.3359
21742,-0.4749,-0.2478,1.332,-2.3893,-0.2901,-39.3664
21762,-0.4314,0.1646,1.4314,-60.4962,-48.542,-75.1298
21782,-0.27,0.4402,1.2605,-137.3817,8.0153,-117.7252
21802,-0.2742,0.7688,1.8196,-250.1374,-8.1069,-165.2977
21822,-0.1646,0.8494,1.9999,-250.1374,-20.2443,-135.7481
21842,-0.3481,0.6162,1.6934,-250.1374,-57.4122,-102.0992
21862,-0.0178,0.627,0.7988,-250.1374,-85.6565,-68
21882,0.2629,0.4885,-0.1155,-250.1374,-85.0763,-59.3969
21902,0.0618,-0.0815,-0.5017,-250.1374,-48.1374,-74.6183
21922,0.1091,-0.0618,-0.6516,-250.1374,-39.6412,-75.6412
21942,0.1536,-0.563,-1.0415,-250.1374,-78.145,-71.0611
21962,0.4133,-0.623,-1.2859,-250.1374,-142.687,-51.5802
21982,0.574,-0.438,-1.3977,-250.1374,-174.1374,-26.542
22002,0.5991,-0.45,-1.5391,-208.6565,-137.8397,-5.1679
22022,0.7974,-0.9539,-2,-137.8473,-71.5191,13.2977
22042,0.8086,-1.2092,-2,10.1221,-22.4275,66.7557
22062,0.4961,-1.4365,-2,134.4733,-17.0611,86.3511
22082,0.2683,-1.3679,-2,250.1298,-21.0153,69.0382
22102,0.4561,-1.4204,-2,250.1298,1.7863,60.8397
22122,0.354,-0.7427,-2,250.1298,38.542,7.5573
22142,0.0945,0.0444,-1.6511,250.1298,90.5802,7.084
22162,0.0334,0.6118,-1.1455,250.1298,88.0458,61.4733
22182,0.1973,1.0107,-0.5203,250.1298,112.5267,98.8015
22202,0.1799,1.1235,0.2439,250.1298,154.313,138.1069
22222,-0.1665,0.9922,1.2549,250.1298,122.2519,135.5954
22242,-0.1396,0.8735,1.47,250.1298,43.9313,169.2061
22262,-0.1367,0.74,1.2571,250.1298,22.3817,224.5267
22282,-0.4736,0.7253,1.8784,240.7863,4.229,250.1298
22302,-1.022,0.5852,1.9999,125.2443,9.9847,209.3206
22322,-1.7661,0.4402,1.9999,-52.5115,22.3817,31.4351
22342,-1.7556,0.5903,1.9999,-250.1374,-1.687,-122.3817
22362,-1.0869,0.6824,1.9999,-250.1374,-71.084,-138.3282
22382,-0.353,0.6448,1.7822,-250.1374,-137.1527,-85.7099
22402,-0.1624,0.6177,1.2678,-250.1374,-144.6565,-67.8779
22422,0.0088,0.7036,0.4675,-250.1374,-133.4046,-72.229
22442,0.2029,0.4062,-0.4546,-250.1374,-61.7634,-54.2137
22462,0.3125,0.3499,-0.5459,-250.1374,10.5725,-24.0611
22482,0.3711,0.292,-0.6565,-250.1374,26.2824,23.4351
22502,0.217,-0.4097,-1.3098,-250.1374,48.2748,12.8168
22522,-0.0129,-1.1458,-1.7451,-250.1374,94.5649,-47.9924
22542,-0.0012,-1.1331,-1.6873,-250.1374,82.2977,-63.4809
22562,-0.2605,-0.8372,-1.2881,-167.229,-40.5954,-7.2748
22582,0.0972,-1.0918,-1.833,-2.8702,-170.6031,71.2214
22602,0.5952,-1.4697,-2,205.6947,-128.4962,51.4427
22622,0.4146,-1.4094,-2,250.1298,16.6794,-5.6565
22642,-0.1548,-1.4089,-2,250.1298,96.458,-119.9008
22662,0.0415,0.0837,-1.7004,250.1298,120.7405,4.2519
22682,-0.052,0.1863,-1.0679,250.1298,73.8015,139.5496
22702,-0.1533,0.2222,-0.7095,250.1298,60.4122,121.4657
22722,0.0564,0.8018,-0.1829,250.1298,92.7176,62.8626
22742,-0.2004,1.511,1.3149,250.1298,154.313,37.5725
22762,-0.5818,1.9358,1.9999,178.7176,123.0382,86.0076
22782,-0.821,1.0271,1.9999,-163.6031,-4.4733,148.4962
22802,-1.0364,0.0557,1.9999,-250.1374,-45.9237,53.916
22822,-0.9006,0.2554,1.9999,-250.1374,12.5344,-76.145
22842,-1.0149,0.4253,1.696,-250.1374,32.7863,-125.8855
22862,-1.4292,0.1167,0.4629,-250.1374,-8.5496,-168.9008
22882,-0.6523,-0.5146,-0.8948,-250.1374,21.6794,-250.1374
22902,0.54,0.1284,-0.4915,-250.1374,76.4504,-250.1374
22922,0.8953,0.2566,-0.5415,-250.1374,19.3206,-157.1527
22942,0.8579,-0.6401,-1.7903,-250.1374,-58.6031,-47.084
22962,0.4736,-1.177,-2,-228.7176,-14.0992,-40.4046
22982,0.856,-1.3997,-2,-69.1679,40.7939,-45.1527
23002,0.5479,-0.9534,-1.9946,94.916,13.6489,7.4351
23022,0.584,-1.0398,-1.9946,243.3282,-68.1679,63.4122
23042,0.7278,-0.9077,-2,250.1298,-18.8397,101.6489
23062,0.0532,-0.5276,-1.9141,250.1298,51.8092,91.458
23082,0.1138,0.0806,-1.3689,250.1298,57.4809,80.084
23102,0.0894,0.9631,-0.5261,250.1298,27.7405,161.5878
23122,0.0337,0.9165,0.262,250.1298,-0.4122,237.2443
23142,-0.0022,0.679,1.3342,250.1298,-43.5496,196.5649
23162,0.2144,0.7122,1.9336,250.1298,-65.5496,153.7099
23182,-0.2668,0.5376,1.9999,244.2366,1.2366,87.1145
23202,-1.0894,0.6697,1.9999,57.9084,73.9313,2.3053
23222,-1.2915,0.7539,1.9999,-186.0382,83.542,-105.2519
23242,-1.0037,0.5403,1.9999,-250.1374,26.4886,-136.0611
23262,-0.5862,0.4512,1.9999,-250.1374,-100.1679,-120.4657
23282,-0.2351,0.4343,1.0083,-250.1374,-103.4657,-110.5267
23302,-0.3713,0.0781,-0.0403,-250.1374,-27.7099,-175.1603
23322,-0.1606,0.3931,-0.2063,-250.1374,-5.7252,-217.4198
23342,0.1445,0.3799,-0.6082,-250.1374,-12.771,-180.3893
23362,0.7136,0.1301,-1.2363,-250.1374,-19.0076,-109.8015
23382,0.8508,-0.6311,-1.7654,-250.1374,-3.6947,-65.2443
23402,0.3147,-0.7405,-2,-250.1374,27.8855,-61.6718
23422,0.5515,-0.4841,-2,-208.374,3.8931,-12.4198
23442,0.8835,-0.689,-2,-84.5878,-71.4504,99.145
23462,0.6912,-1.1104,-2,98.6947,-94.8855,134.9542
23482,0.634,-1.1028,-2,250.1298,-46.4656,131.6183
23502,0.4175,-0.7229,-2,250.1298,41.7634,100.6031
23522,0.2312,-0.1904,-1.2961,250.1298,79.5343,83.0534
23542,0.1038,-0.0071,-1.1362,250.1298,106.5573,95.7939
23562,-0.199,0.3621,-0.7439,250.1298,127.626,104.2824
23582,-0.1572,0.6929,-0.175,250.1298,141.4351,132.9542
23602,-0.3606,0.9229,0.9285,250.1298,93.9924,153.5191
23622,-0.6172,0.5989,1.9211,250.1298,87.1069,92.2595
23642,-0.6992,0.4575,1.9999,110.6489,127.3359,4.1908
23662,-1.3848,0.2883,1.9999,-23.3359,150.1679,-89.1985
23682,-1.3606,0.2781,1.9999,-208.1985,59.5573,-124.7176
23702,-1.1201,-0.0276,1.9999,-250.1374,-52.4656,-123.7023
23722,-1.0085,-0.0654,1.9338,-250.1374,-152.7634,-139.687
23742,-1.0029,0.0276,0.9121,-250.1374,-191.4122,-191.9924
23762,-1.0317,0.1023,0.1458,-250.1374,-156.229,-250.1374
23782,-0.6311,0.2136,-0.4956,-250.1374,-177.9695,-250.1374
23802,0.1987,0.2383,-1.095,-250.1374,-207.2824,-226.9237
23822,0.6089,-0.1311,-1.7581,-250.1374,-211.458,-148.687
23842,0.6465,-0.3181,-1.8821,-172.0611,-200.7863,-76.7634
23862,0.9617,-1.0496,-2,-18.4809,-132.542,3.7863
23882,0.8022,-1.2612,-2,32.5115,-73.3817,26.3664
23902,0.7896,-1.0906,-1.7844,-0.3893,-41.0992,4.2595
23922,0.9114,-1.0381,-1.7129,128.3969,-25.9084,40.2214
23942,0.7676,-1.0308,-1.6284,232.9695,24.542,74.9924
23962,0.5371,-0.8809,-1.2961,250.1298,96,92.458
23982,0.3879,-0.9023,-0.9065,250.1298,117.0229,107.2748
24002,0.3875,-0.6421,-0.8728,250.1298,119.1298,120.1145
24022,0.3706,-0.1345,-0.7925,250.1298,164.7939,166.4809
24042,0.469,0.3914,-0.5212,250.1298,221.6718,229.229
24062,0.1204,0.8435,-0.0884,250.1298,250.1298,250.1298
24082,-1.1062,0.7979,1.2854,250.1298,250.1298,189.6794
24102,-1.3989,0.3618,1.9658,241.9084,104.9618,22.2595
24122,-0.5513,0.2908,0.8596,250.1298,117.229,95.1756
24142,-0.7542,-0.3462,0.8948,250.1298,102.8779,135.0611
24162,-0.8691,0.2358,1.2224,250.1298,76.9084,97.4198
24182,-1.0383,0.3789,1.6335,128.6947,23.6183,36.0992
24202,-1.4224,0.3257,1.6318,-17.6565,-18.6947,-19.4198
24222,-1.7969,0.0276,1.5496,-119.4962,-72,-53.2748
24242,-2,-0.2422,1.5762,-190.4122,-158.0153,-93.6794
24262,-1.593,-0.2231,1.1638,-230.5725,-231.3817,-141.771
24282,-1.0762,-0.3289,0.8057,-250.1374,-240.0229,-242.5725
24302,-0.5806,0.3088,1.0862,-250.1374,-250.1374,-250.1374
24322,0.0037,1.0132,0.8149,-250.1374,-250.1374,-250.1374
24342,0.7053,1.0764,0.0723,-250.1374,-250.1374,-237.7099
24362,0.7727,0.1731,-0.864,-250.1374,-250.1374,-22.145
24382,0.7849,-1.6367,-1.3689,-250.1374,-197.5802,45.5649
24402,0.8821,-2,-1.8472,-210.3817,-73.3053,-70.3435
24422,0.7039,-1.3716,-0.7971,-109.4885,-12.1145,-35.9618
24442,1.1182,-1.408,-0.958,-82.1603,-51.5267,112.8626
24462,1.1667,-1.8342,-1.146,116.0687,-17.6718,172.9389
24482,1.0413,-1.9441,-1.0054,250.1298,51.2824,144.9542
24502,0.6821,-1.1592,-0.6462,250.1298,143.0992,123.5267
24522,0.502,-1.1563,-0.6074,250.1298,136.6565,98.145
24542,0.3259,-0.8833,-0.8682,250.1298,170.3817,48.9847
24562,0.0239,-0.2168,-0.7214,250.1298,204.0992,35.5115
24582,-0.155,0.7605,-0.1919,250.1298,232.2824,44.7786
24602,-0.426,0.8464,0.7603,250.1298,225.0305,67.4198
24622,-0.2942,1.0874,0.946,250.1298,214.2214,42.9847
24642,-0.9973,1.3098,1.2256,250.1298,242.9084,-29.7252
24662,-2,1.9941,1.9999,151.2672,192.5496,-138.7023
24682,-2,1.8533,1.9999,-187.8931,-23.0458,-198.916
24702,-1.387,1.1912,1.4565,-250.1374,-215.3359,-151.7634
24722,-0.9917,0.7668,1.2124,-250.1374,-250.1374,-111.5954
24742,-0.8577,0.1299,0.2517,-250.1374,-250.1374,-56.6489
24762,-0.6772,-0.9009,-0.4028,-250.1374,-250.1374,2.6641
24782,-0.1086,-1.179,-0.7871,-250.1374,-250.1374,77.0687
24802,0.8967,-1.979,-0.5508,-250.1374,-250.1374,86
24822,1.2996,-2,-0.9155,-250.1374,-157.9771,2
24842,1.0251,-2,-0.5513,-55.1527,-67.2214,-39.2366
24862,1.1797,-2,-0.6511,47.6718,-17.5496,-10.1756
24882,0.9954,-2,-0.6548,234.374,53.4198,7.771
24902,0.769,-1.3877,-0.3389,250.1298,108.7786,47.6183
24922,0.4377,-1.0029,-0.124,250.1298,143.5725,123.4122
24942,0.4177,-0.6145,0.0364,250.1298,165.1832,91.8015
24962,0.2483,0.3008,0.3135,250.1298,229.2595,54.8092
24982,0.0247,0.6074,0.3772,250.1298,250.1298,-12.4809
25002,-0.595,0.6992,0.8887,250.1298,250.1298,23.7328
25022,-0.7986,0.8716,1.1897,219.3435,205.4046,58.3511
25042,-0.5627,0.5596,1.2158,188.5573,143.9924,98.4733
25062,-0.6409,0.1604,1.031,168.6565,120.8473,47.0763
25082,-0.7573,-0.1138,1.071,154.9389,67.374,-69.8626
25102,-0.813,-0.2126,1.0349,82.9695,16.229,-120.9466
25122,-0.8506,-0.1123,1.1035,-4.9542,-2.6031,-85.1298
25142,-0.7063,0.0107,1.1677,-86.9389,-10.687,-15.7405
25162,-0.6384,-0.6514,1.1311,-158.687,-48.0916,-9.6565
25182,-0.4524,-0.9431,0.9973,-182.9924,-39.7634,-48.1679
25202,-0.6624,-0.7068,0.9961,-122.1985,-46.7786,-94.084
25222,-0.6448,-0.5183,1.1528,-59.9924,-64.2748,-117.3664
25242,-0.1174,-0.3064,1.2524,-86.9771,-80.2595,-108.1603
25262,-0.1025,-0.8167,0.9316,-94.5115,-51.0229,-66.4427
25282,-0.176,-0.6941,0.6448,-39.8931,-21.5802,-12.4427
25302,-0.2375,-0.468,0.8826,97.1527,23.3435,14.0611
25322,0.0676,-0.394,1.0193,100.2824,-49.7786,42.0458
25342,-0.0684,-0.5581,1.1079,108.4046,-129.0382,50
25362,-0.0803,-0.6521,0.9734,101.8473,-86.1298,57.4122
25382,-0.1208,-0.5029,1.0359,101.4122,-64.2061,60.5496
25402,0.0679,-0.6343,1.0479,167.1298,-150.9237,30.145
25422,-0.0222,-0.3718,1.2468,209.313,-137.626,54.2595
25442,-0.1084,-0.4358,1.709,118.7557,-199.5114,36.0763
25462,0.0818,-0.7329,0.834,120.0458,-250.1374,16.2443
25482,0.2031,-0.1338,1.0303,95.0611,-109.0687,29.8092
25502,0.116,-0.1963,1.1113,74.4733,-43.0229,23.7939
25522,0.3638,-0.1851,0.9856,120.2366,-90.0534,57.7481
25542,0.2024,-0.095,1.1523,144.9008,-96.7634,76.6641
25562,0.3945,-0.208,0.8745,168.4962,-104.1298,59.5725
25582,0.0881,1.0657,1.9999,10.3817,142.6488,44.6718
25602,-0.0195,-0.1255,1.2676,-8.9695,46.2061,2.374
25622,0.1357,-0.0967,1.093,10.7176,82.2519,19.9466
25642,0.041,-0.0862,1.2458,2.8702,80.6183,9.9618
25662,0.1282,-0.1077,1.3132,10.4504,52.2595,15.1603
25682,0.0828,-0.0156,1.2668,6.145,49.229,15.771
25702,0.0701,-0.0061,1.248,6.0687,55.4198,19.2901
25722,0.0342,0.0125,1.2537,-3.0382,15.8855,17.5114
25742,0.041,-0.0134,1.2292,-9.0076,31.374,17.2137
25762,0.0193,-0.0261,1.2241,-7.7405,33.542,5.9466
25782,-0.0376,-0.0251,1.2849,-3.5649,11.0992,3.084
25802,0.0183,-0.0088,1.2625,-1.2214,-2.7481,4.1221
25822,0.0493,-0.01,1.2207,-2.7634,0.9618,2.9084
25842,-0.0071,-0.0281,1.2629,-1.2901,-4.4733,3.3817
25862,0.1328,0.0425,1.2578,-1.229,-7.7023,27.6489
25882,0.1167,0.0173,1.2009,-3.7481,-2.1221,50.542
25902,0.0381,-0.01,1.2588,-6.8473,4.1679,62.8702
25922,0.0176,-0.0068,1.2385,-5.3359,-3.7634,69.5115
25942,0.0027,-0.0127,1.2397,-5.3282,-6.9695,72.5802
25962,0.0183,-0.0046,1.2424,-5.8702,-4.8855,74.0916
25982,0.019,-0.0242,1.2261,-6.1527,-3.1679,73.8779
26002,-0.0149,-0.0303,1.2346,-4.9771,-6.8702,72.8779
26022,-0.0017,-0.0234,1.238,-3.7786,-11.9847,68.458
26042,-0.0071,-0.0417,1.2632,-2.145,-15.4656,65.4427
26062,-0.0554,-0.0496,1.2532,-4.1756,-34.9924,40.7481
26082,-0.0137,-0.0664,1.1914,9.1832,-22.2214,30.0076
26102,-0.0039,-0.0261,1.2551,-0.8931,-11.2061,7.084
26122,0.05,-0.0215,1.2144,-3.7863,10.1908,2.5802
26142,0.0376,-0.0369,1.1919,-5.8244,10.9924,-1.916
26162,0.0493,-0.01,1.2605,-4.1374,4.771,-1.0992
26182,0.0378,-0.0298,1.218,-1.2061,-2.4809,3.4122
26202,0.0276,-0.0247,1.2517,1.6336,-7.7405,3.7328
26222,0.0457,-0.0239,1.2368,2.6565,-9.2824,3.9618
26242,0.0583,-0.0312,1.2163,-0.229,-5.3511,3.771
26262,0.0496,-0.0254,1.2363,-1.8321,2.8092,2.9389
26282,0.0442,-0.0369,1.2476,-3.3359,2.1221,3.2748
26302,0.0435,-0.0298,1.2351,-1.0992,-0.5344,3.3893
26322,0.0479,-0.0256,1.2231,0.5267,-3.7099,3.5267
26342,0.0535,-0.0232,1.2229,1.1069,-4.9313,3.4885
26362,0.0513,-0.0188,1.2375,0.4885,-4.1527,3.3893
26382,0.0369,-0.0205,1.2319,-1.1298,-0.4656,3.4198
26402,0.0459,-0.0303,1.2178,-1.145,0.6718,3.2061
26422,0.0325,-0.0239,1.2197,-0.4733,-0.4962,3.374
26442,0.0337,-0.0342,1.2205,0.6183,-2.5649,3.3893
26462,0.032,-0.0127,1.2522,0.2748,-3.1145,3.6794
26482,0.0415,-0.0166,1.2336,-0.7557,-0.6641,3.5267
26502,0.0317,-0.0217,1.2251,-1.3817,0.084,3.4427
26522,0.0205,-0.0247,1.2163,-1.2672,-0.4351,3.2137
26542,0.0356,-0.0298,1.23,-0.3817,-2.1527,3.4656
26562,0.0273,-0.0242,1.24,0.0687,-2.8092,3.626
26582,0.0427,-0.011,1.2417,-0.2519,-2.9084,3.5496
26602,0.0364,-0.0203,1.2312,-0.9924,-1.7405,3.6107
26622,0.0361,-0.0144,1.2317,-1.7328,-1.313,3.5573
26642,0.0337,-0.0164,1.2439,-1.5725,-0.8244,3.6336
26662,0.0398,-0.0254,1.2405,-0.8321,-1.8931,3.4885
26682,0.0364,-0.0193,1.2476,-0.3893,-2.6947,3.4733
26702,0.033,-0.019,1.2344,-0.7023,-2.9695,3.626
26722,0.0386,-0.0186,1.2441,-0.771,-2.8626,3.3588
26742,0.0361,-0.0215,1.2493,-0.8397,-1.855,3.5954
26762,0.0542,-0.0249,1.2297,-1.229,-1.4122,3.2366
26782,0.041,-0.0244,1.2236,-1.542,-0.9237,3.458
26802,0.0391,-0.0271,1.2329,-1.084,-1.0382,3.3817
26822,0.0422,-0.0305,1.2363,0.0458,-2.1603,3.374
26842,0.0347,-0.0366,1.2341,0.5573,-3.2595,3.5573
26862,0.0435,-0.031,1.2295,0.2366,-3.0763,3.542
26882,0.0542,-0.0247,1.2146,-0.6794,-1.0611,3.5038
26902,0.0364,-0.0222,1.2249,-0.855,-1.0687,3.4733
26922,0.041,-0.032,1.2239,-0.2137,-1.6107,3.4885
26942,0.0349,-0.0249,1.2283,-0.4275,-2.0916,3.4885
26962,0.0371,-0.0327,1.2227,-0.458,-0.1603,3.5496
26982,0.0347,-0.0232,1.2273,-1.2443,0.2519,3.374
27002,0.0398,-0.0312,1.2273,-0.7099,-0.5344,3.5496
27022,0.0398,-0.0244,1.248,-0.0611,-2.6336,3.7176
27042,0.0396,-0.0198,1.249,0.5802,-3.7176,3.5191
27062,0.0491,-0.0208,1.2412,-0.374,-3.2519,3.5725
27082,0.0432,-0.0217,1.2356,-1.8473,-0.5115,3.3893
27102,0.0413,-0.0178,1.2317,-2.8092,0.2977,3.3511
27122,0.0325,-0.0173,1.2476,-2.229,-0.4962,3.313
27142,0.0371,-0.022,1.2427,-0.5038,-2.771,3.4122
27162,0.0383,-0.0225,1.2319,0.4046,-5.7786,3.5802
27182,0.0378,-0.0203,1.2283,0.8321,-5.8244,3.2977
27202,0.0483,-0.03,1.2061,-0.7863,-2.458,3.4504
27222,0.0364,-0.0261,1.2402,-1.458,0.2137,3.1527
27242,0.0327,-0.0281,1.2231,-1.5802,0.4962,3.3435
27262,0.033,-0.0278,1.2271,-0.8015,-2.145,3.5344
27282,0.0403,-0.022,1.2175,0.6641,-3.0687,3.5038
27302,0.0435,-0.0229,1.2427,-0.2595,-4.0611,3.6183
27322,0.0417,-0.02,1.2273,-1.4809,-0.1603,3.4504
27342,0.0317,-0.0349,1.2195,-1.8321,0.2824,3.4809
27362,0.0308,-0.031,1.2239,-1.145,-0.1985,3.1145
27382,0.0276,-0.0293,1.2363,-0.5573,-1.7634,3.5496
27402,0.0354,-0.0303,1.2285,0.1298,-3.1069,3.626
27422,0.0408,-0.0298,1.2183,0.5344,-3.7939,3.5573
27442,0.0415,-0.0295,1.2336,-0.4351,-2.6947,3.6107
27462,0.0405,-0.0273,1.2292,-0.8473,-1.0305,3.458
27482,0.0405,-0.0271,1.2354,-1.0763,-0.4733,3.5649
27502,0.0376,-0.0186,1.2341,-0.8092,-1.3969,3.4351
27522,0.0361,-0.0264,1.2375,-0.3435,-2.4962,3.6336
27542,0.0398,-0.0203,1.2451,0,-3.0382,3.6565
27562,0.0457,-0.0156,1.2356,-0.0992,-2.3359,3.6565
27582,0.043,-0.0098,1.2397,-0.7557,-1.2748,3.4427
27602,0.0471,-0.0134,1.2498,-1.2977,-0.6489,3.5573
27622,0.0398,-0.0229,1.241,-1.2824,-1.0611,3.3511
27642,0.0295,-0.0171,1.2463,-1.0076,-2.0763,3.4275
27662,0.0259,-0.019,1.2405,-0.5802,-2.7634,3.7099
27682,0.0344,-0.0193,1.2424,-0.542,-3.0076,3.3664
27702,0.0349,-0.0215,1.2341,-0.7252,-2.5725,3.3435
27722,0.0291,-0.0171,1.249,-1.0458,-1.542,3.2443
27742,0.0344,-0.0242,1.2144,-1.3664,-0.7863,3.2824
27762,0.0298,-0.0261,1.2197,-1.2672,-1.2748,3.2977
27782,0.0281,-0.0256,1.2368,-0.9008,-1.7939,3.1908
27802,0.0349,-0.0269,1.2302,-0.4198,-2.4962,3.6183
27822,0.0393,-0.0339,1.2273,-0.0916,-2.3893,3.2595
27842,0.0417,-0.0327,1.2322,-0.1985,-2,3.5115
27862,0.0378,-0.0303,1.2339,-0.1527,-1.7557,3.4962
27882,0.0366,-0.0352,1.2207,-0.3893,-1.9084,3.5725
27902,0.0435,-0.0266,1.231,-0.3817,-1.542,3.6183
27922,0.0459,-0.0269,1.2407,-0.6641,-1.8779,3.5191
27942,0.0508,-0.0256,1.2351,-0.2672,-1.6031,3.6718
27962,0.0581,-0.0247,1.2407,-0.0382,-1.8015,3.5344
27982,0.0449,-0.0261,1.2295,-0.2137,-2.5954,3.6031
28002,0.051,-0.0259,1.2388,-0.2595,-1.9542,3.4122
28022,0.0498,-0.0161,1.2419,-0.8168,-1.1756,3.3893
28042,0.0425,-0.0249,1.2454,-1.0153,-0.9389,3.4046
28062,0.0322,-0.0266,1.2358,-0.855,-1.145,3.1985
28082,0.0312,-0.0166,1.2471,-0.626,-1.9008,3.4733
28102,0.0325,-0.0125,1.249,-0.3817,-2.084,3.3893
28122,0.0327,-0.0195,1.2317,-0.3435,-1.9313,3.3817
28142,0.0349,-0.0273,1.2212,-0.6718,-1.6641,3.4122
28162,0.0264,-0.0229,1.2273,-0.9771,-1.3893,3.5038
28182,0.0352,-0.0232,1.2297,-0.9542,-1.3359,3.3359
28202,0.0281,-0.0225,1.2317,-1.0153,-1.7557,3.2901
28222,0.0298,-0.0244,1.2217,-0.9313,-1.9389,3.5649
28242,0.0251,-0.0322,1.2231,-0.9924,-1.7863,3.4809
28262,0.0364,-0.031,1.2178,-0.6031,-1.3893,3.6336
28282,0.0383,-0.0325,1.217,-0.3817,-1.8168,3.5038
28302,0.0408,-0.0288,1.2249,-0.7634,-1.5725,3.6107
28322,0.0371,-0.0251,1.2349,-0.687,-1.6031,3.2748
28342,0.0383,-0.0308,1.2441,-0.7176,-1.7481,3.3664
28362,0.042,-0.0276,1.2288,-0.7634,-1.9771,3.5496
28382,0.054,-0.0308,1.2375,-0.6336,-1.9466,3.4122
28402,0.0532,-0.0232,1.2341,-0.687,-2.0916,3.6794
28422,0.0442,-0.0288,1.241,-0.7405,-1.7863,3.313
28442,0.0503,-0.0276,1.2251,-0.6947,-1.9389,3.5267
28462,0.0454,-0.0273,1.2388,-0.7786,-1.9237,3.4885
28482,0.0388,-0.0186,1.2292,-0.6718,-2.5802,3.4198
28502,0.0352,-0.02,1.2332,-0.3359,-2.3588,3.3511
28522,0.0439,-0.0237,1.2349,-0.4427,-2.1603,3.3206
28542,0.0391,-0.021,1.2275,-0.4504,-2.0076,3.3664
28562,0.0444,-0.0239,1.229,-0.5191,-1.5649,3.3435
28582,0.0305,-0.019,1.2292,-0.7405,-1.3893,3.4656
28602,0.0283,-0.0139,1.2202,-0.9847,-1.5038,3.6565
28622,0.0383,-0.0159,1.2317,-0.8092,-1.5496,3.2595
28642,0.0293,-0.0159,1.238,-0.6718,-1.4885,3.542
28662,0.0371,-0.021,1.228,-0.3588,-1.4198,3.5802
28682,0.0312,-0.0225,1.2122,-0.4198,-1.4351,3.4427
28702,0.0295,-0.0215,1.2297,-0.8626,-1.855,3.5267
28722,0.0366,-0.031,1.238,-0.7328,-1.5191,3.4427
28742,0.0276,-0.019,1.2417,-0.9771,-2.1832,3.6641
28762,0.0415,-0.0217,1.218,-0.8855,-2.2137,3.3969
28782,0.0439,-0.0254,1.2275,-0.7252,-2.0382,3.4962
28802,0.0435,-0.0286,1.2244,-0.7328,-1.8321,3.4046
28822,0.0581,-0.0281,1.231,-0.5038,-1.626,3.5191
28842,0.0479,-0.0261,1.2224,-0.3053,-1.5115,3.4962
28862,0.0535,-0.0295,1.2188,-0.3053,-1.6031,3.5038
28882,0.0483,-0.0225,1.2344,-0.4275,-1.7405,3.4733
28902,0.0549,-0.0305,1.2224,-0.3969,-1.7023,3.4733
28922,0.05,-0.0298,1.2227,-0.1679,-1.5038,3.6947
28942,0.0449,-0.0308,1.2183,-0.4275,-1.7786,3.3282
28962,0.0466,-0.0225,1.2314,-0.313,-1.7786,3.4351
28982,0.0459,-0.0264,1.2256,-0.2061,-1.5878,3.458
29002,0.0293,-0.0247,1.229,-0.4351,-1.6336,3.1603
29022,0.0281,-0.02,1.2266,-1.1298,-1.8015,3.4046
29042,0.0337,-0.0151,1.2297,-0.9695,-1.1603,3.5191
29062,0.0254,-0.0139,1.2373,-0.7786,-1.2901,3.5038
29082,0.03,-0.0205,1.2341,-0.6947,-1.6489,3.1756
29102,0.0344,-0.0222,1.2354,-0.6107,-2.0076,3.5344
29122,0.031,-0.0276,1.2231,-0.5802,-2.1603,3.5496
29142,0.0266,-0.0298,1.2292,-0.5649,-2.0916,3.5267
29162,0.0386,-0.0232,1.2346,-0.5267,-1.7557,3.5115
29182,0.0361,-0.0203,1.2329,-0.8855,-2.3817,3.6031
29202,0.0374,-0.0127,1.2456,-0.8321,-2.0382,3.7099
29222,0.0483,-0.0112,1.2197,-0.7481,-2.2443,3.5191
29242,0.0505,-0.0303,1.2258,-0.6565,-2.1145,3.6641
29262,0.0444,-0.032,1.2288,-0.6794,-2.0153,3.6947
29282,0.0386,-0.0273,1.23,-0.8092,-1.9466,3.5573
29302,0.0366,-0.0293,1.2468,-0.7405,-1.8092,3.4809
29322,0.0527,-0.031,1.2378,-0.8092,-1.5573,3.3588
29342,0.051,-0.0269,1.2354,-0.8168,-1.3359,3.4351
29362,0.0479,-0.0251,1.2397,-0.9771,-1.8092,3.4733
29382,0.0515,-0.032,1.2305,-0.6641,-1.6412,3.7023
29402,0.0388,-0.03,1.2317,-0.4046,-1.8321,3.4656
29422,0.0437,-0.0281,1.2249,-0.6107,-1.6947,3.374
29442,0.0435,-0.0271,1.23,-0.4809,-1.4427,3.4046
29462,0.0383,-0.0281,1.2246,-0.5802,-1,3.6412
29482,0.03,-0.0188,1.2312,-0.4962,-1.0611,3.3588
29502,0.0405,-0.0208,1.2231,-0.3282,-1.3893,3.5115
29522,0.0356,-0.0249,1.2275,-0.0992,-1.4885,3.5725
29542,0.0298,-0.0266,1.2285,-0.1298,-1.6107,3.4351
29562,0.0239,-0.0242,1.2305,-0.5573,-1.7481,3.5496
29582,0.0283,-0.0217,1.2329,-0.8397,-1.5954,3.4122
29602,0.0271,-0.0205,1.2263,-0.9542,-1.4198,3.6489
29622,0.0413,-0.0259,1.2361,-0.5802,-1.6641,3.3893
29642,0.0354,-0.0227,1.2297,-0.6947,-1.8931,3.6107
29662,0.0447,-0.0234,1.2314,-0.8321,-2.6489,3.5954
29682,0.0459,-0.0242,1.2319,-0.6183,-2.5802,3.4656
29702,0.0432,-0.0193,1.2336,-0.7252,-2.1756,3.5573
29722,0.0396,-0.0203,1.24,-1,-2.0153,3.3206
29742,0.0425,-0.021,1.2385,-1.0687,-1.4122,3.2595
29762,0.0417,-0.0203,1.23,-0.9466,-1.5878,3.3893
29782,0.0439,-0.0269,1.239,-0.6412,-1.6489,3.3282
29802,0.0352,-0.0203,1.2327,-0.5725,-2.0076,3.5344
29822,0.0305,-0.0242,1.2349,-0.5649,-2.2519,3.1145
29842,0.0269,-0.0261,1.229,-0.6794,-1.8626,3.4656
29862,0.0381,-0.0371,1.241,-0.2214,-1.3664,3.3893
29882,0.0352,-0.0278,1.2253,-0.2977,-1.0687,3.2595
29902,0.0432,-0.0269,1.2278,-0.5802,-1.3893,3.4046
29922,0.0393,-0.0349,1.2319,-0.5191,-1.8779,3.6336
29942,0.0356,-0.0249,1.2249,-0.3588,-1.6489,3.4427
29962,0.0369,-0.0259,1.229,-0.2901,-1.4427,3.3969
29982,0.0264,-0.0242,1.231,-0.4275,-1.2824,3.4962
30002,0.0273,-0.0251,1.2395,-0.6183,-1.5115,3.4351
30022,0.0251,-0.021,1.2361,-0.4427,-1.3511,3.5344
30042,0.0259,-0.0247,1.2334,-0.5267,-2.0611,3.6183
30062,0.0349,-0.0273,1.2268,-0.458,-2.1908,3.4962
30082,0.0388,-0.0237,1.2209,-0.1221,-1.9695,3.8244
30102,0.0398,-0.0217,1.2424,-0.7939,-2.6794,3.3817
30122,0.0437,-0.0156,1.2393,-0.8168,-2.1069,3.6031
30142,0.0408,-0.0142,1.239,-0.8779,-2.2061,3.4504
30162,0.0439,-0.011,1.238,-0.8321,-2.5649,3.4885
30182,0.042,-0.0208,1.2458,-0.771,-2.2214,3.5573
30202,0.0349,-0.0242,1.2478,-0.7328,-2.4504,3.4427
30222,0.0308,-0.0217,1.2373,-0.8397,-1.8015,3.3664
30242,0.0376,-0.0266,1.2361,-1.0458,-1.7863,3.1832
30262,0.0312,-0.0176,1.2407,-0.9618,-1.7634,3.3511
30282,0.0269,-0.0217,1.2339,-0.9542,-1.6947,3.5802
30302,0.0386,-0.022,1.2424,-0.8626,-1.7863,3.3588
30322,0.0339,-0.0203,1.2283,-0.7939,-1.8855,3.6183
30342,0.0286,-0.0269,1.2192,-0.5649,-1.4809,3.3893
30362,0.0305,-0.0303,1.2351,-0.9542,-1.3664,3.4046
30382,0.032,-0.0259,1.2336,-0.6107,-1.5649,3.4427
30402,0.0369,-0.0298,1.2305,-0.4656,-1.5115,3.4885
30422,0.0332,-0.0278,1.2319,-0.6336,-1.4656,3.1985
30442,0.0396,-0.0322,1.2332,-0.6489,-1.0153,3.4504
30462,0.042,-0.0342,1.25,-0.8244,-1.3893,3.3817
30482,0.0251,-0.0261,1.2329,-0.229,-1.8397,3.5573
30502,0.0339,-0.031,1.2366,0.1221,-2.626,3.7863
30522,0.0366,-0.0312,1.2363,-0.1603,-3.0305,3.4198
30542,0.0393,-0.0286,1.2368,-0.1221,-2.0458,3.6718
30562,0.0449,-0.0164,1.25,-0.3282,-1.2672,3.4046
30582,0.0444,-0.0188,1.2444,-0.7863,-0.8779,3.3359
30602,0.0469,-0.0168,1.2285,-0.8931,-1.229,3.2595
30622,0.0386,-0.0188,1.2361,-0.542,-1.7939,3.3664
30642,0.0288,-0.0273,1.2373,-0.0763,-1.9847,3.4504
30662,0.0369,-0.0125,1.2388,-0.3969,-2.2443,3.1832
30682,0.0464,-0.0232,1.2302,-0.771,-1.5725,3.458
30702,0.032,-0.019,1.2302,-1.0534,-1.0916,3.3053
30722,0.0225,-0.0251,1.2332,-1.1374,-1.1298,3.5496
30742,0.0415,-0.0286,1.2424,-0.3588,-1.626,3.3359
30762,0.0247,-0.0254,1.2175,-0.1756,-3.0611,3.6718
30782,0.0295,-0.0325,1.2239,0.084,-2.687,3.6641
30802,0.0327,-0.0234,1.2136,-0.6336,-1.5878,3.4885
30822,0.032,-0.0232,1.2241,-1.1221,-0.2519,3.3893
30842,0.0322,-0.0312,1.2244,-1.2214,-0.0916,3.2824
30862,0.0388,-0.0356,1.2195,-1.0229,-1.1298,3.4275
30882,0.0332,-0.031,1.2275,-1.0458,-0.9313,3.4504
30902,0.0334,-0.0291,1.2358,-0.8702,-1.5038,3.6183
30922,0.0325,-0.031,1.2324,-0.2061,-0.6489,3.6641
30942,0.0432,-0.0312,1.219,0.1298,-0.0916,3.5038
30962,0.0085,-0.0381,1.2534,-1.1908,-5.0458,4.3511
30982,0.0576,-0.0283,1.2227,-2.1679,-3.8244,3.9847
31002,0.0337,-0.0212,1.26,-0.3435,-4.3282,3.6794
31022,0.0352,-0.0242,1.2302,-0.3435,-0.8855,3.1832
31042,0.4807,0.0781,1.3462,-2.9771,-23.313,20.5496
31062,0.1138,-0.0198,0.978,-7.4656,-11.3206,-32.1908
31082,0.0015,-0.0625,1.2568,-10.9618,1.6183,-34.0611
31102,-0.1309,-0.1924,1.4146,-24.2137,-4.0916,-62.0916
31122,0.1409,-0.2356,1.127,-30.5954,-18.7863,-107.0916
31142,0.1802,-0.1843,1.291,-21.8473,-2.7176,-89.1985
31162,-0.0022,-0.1094,1.3948,-46.8702,3.458,-89.9313
31182,0.1025,-0.0508,1.7739,-102.8626,4.3282,-85.7863
31202,-0.1392,-0.4333,1.6428,-151.9466,-8.4122,-103.916
31222,-0.1372,-0.4626,0.9692,-85.7786,92.5267,-114.3206
31242,-0.1125,-0.2744,1.4404,10.229,129.4122,-51.0611
31262,-0.2012,-0.3179,1.5293,76.374,23.2824,26.6107
31282,-0.0718,-0.3496,1.3838,144.7252,-15.3588,61.8931
31302,0.0952,-0.4355,1.355,132.2519,6.4656,61.5038
31322,0.1191,-0.3562,1.2576,67.855,71.0611,23.7863
31342,0.0596,-0.4163,1.4854,-59.0076,97.0687,-10.3893
31362,0.1833,-0.2107,1.7349,-207.4427,56.542,5.6107
31382,0.1211,-0.1943,0.9729,-250.1374,69.6718,40.3053
31402,-0.1479,-0.3235,0.9216,-250.1374,31.3435,89.3893
31422,0.0535,-0.3245,0.6851,-210.6488,11.458,53.3282
31442,0.0022,-0.5779,1.127,-159.8092,12.4427,25.1756
31462,0.1406,-0.4392,1.3083,-147.5267,-9.9847,23.6947
31482,-0.1353,-0.3867,1.2571,-120.5191,-66.5725,38.0687
31502,-0.281,-0.2896,0.7395,-72.9466,-52.0763,20.1756
31522,-0.1548,-0.2314,1.3284,-73.5725,59.3588,41.9237
31542,-0.2424,-0.271,1.4746,-142.4427,167.8931,12.2672
31562,-0.6167,-0.1829,1.8887,-105.626,13.6641,-71.7557
31582,-0.3677,-0.0303,1.7974,-41.6489,-79.7176,-153.8092
31602,-0.103,0.4177,1.5022,16.4122,-79.8244,-144
31622,-0.4822,1.0269,1.7449,-67.6412,9.5725,-115.4885
31642,-0.6602,0.9827,1.7913,-229.4046,-15.4046,-112.2214
31662,-0.4375,0.811,1.5146,-250.1374,-81.1221,-142.145
31682,-0.2134,0.5535,0.7375,-250.1374,-85.5267,-148.9084
31702,-0.0781,0.5605,0.3069,-250.1374,-68.5496,-138.9313
31722,-0.0806,0.4932,-0.1143,-250.1374,-90.374,-140.7634
31742,-0.0359,-0.3479,-0.6848,-250.1374,-95.2901,-106.8168
31762,0.2512,-0.9604,-0.8989,-250.1374,-116.5343,-72.4885
31782,0.4458,-0.3877,-1.0166,-246.8702,-168.4886,-20.4046
31802,0.7812,-0.8906,-1.2192,-205.3435,-176.9084,88.8931
31822,0.6968,-1.2588,-1.2781,-145.7099,-142.0382,123.7481
31842,0.6921,-1.8979,-1.3936,-111.3664,-100.4046,55.6947
31862,1.1243,-2,-1.8889,16.229,-37.5725,-11.0382
31882,0.7971,-1.8186,-1.7061,196.8397,-15.2595,45.8092
31902,0.5381,-2,-1.3113,250.1298,-16.2748,131.0382
31922,0.5972,-2,-1.364,250.1298,64.5878,139.6718
31942,0.4829,-1.1335,-1.0474,250.1298,107.6031,181.3512
31962,-0.053,-0.6736,-0.5208,250.1298,10.855,106.0076
31982,0.1506,-0.2246,-0.6404,250.1298,25.084,45.6718
32002,-0.0369,-0.0076,-0.2495,250.1298,79.8473,71.1985
32022,-0.1353,0.7151,-0.1038,250.1298,188.7481,102.4427
32042,-0.4087,1.3408,0.9631,250.1298,250.1298,207.8473
32062,-1.0911,1.0244,1.7979,165.6336,117.8015,120.0305
32082,-0.9712,1.0286,1.9999,67.7939,66.7786,44.4504
32102,-1.1487,1.3904,1.9999,-47.9618,26.6031,-111.5802
32122,-1.2368,1.0979,1.9999,-204.458,21.4046,-197.1374
32142,-1.4021,1.0254,1.9597,-250.1374,-30.2443,-244.5573
32162,-1.0491,0.7576,1.2729,-250.1374,-117.6183,-250.1374
32182,-0.3879,0.2476,0.3521,-250.1374,-178.6794,-250.1374
32202,-0.0857,0.2236,-0.2227,-250.1374,-178.7023,-250.1374
32222,0.4329,-0.2039,-0.688,-250.1374,-181.9542,-242.8168
32242,0.7173,-0.7249,-1.0239,-250.1374,-154.4657,-186.2595
32262,0.8091,-1.2031,-1.1245,-250.1374,-123.5496,-235.6336
32282,1.2595,-1.8376,-1.781,-250.1374,-82.7405,-211.5114
32302,1.0156,-1.5671,-1.5945,-143.2137,-76.8015,-103.2672
32322,1.4202,-1.2815,-1.5691,24.4656,-69.3435,-17.6718
32342,1.6187,-1.4001,-1.3884,119.7557,14.2443,102.1908
32362,0.6086,-1.1433,-0.7471,209.313,5.4198,247.3053
32382,1.0894,-1.3188,-1.0039,250.1298,-25.0458,199.3969
32402,0.8879,-0.9775,-0.9912,250.1298,7.0763,174.2901
32422,0.2837,-0.5718,-0.375,250.1298,64.6336,96.2901
32442,0.3206,-0.3315,-0.4287,250.1298,207.687,80.626
32462,0.0381,-0.7107,-0.0344,250.1298,250.1298,141.687
32482,-0.4231,-0.5598,0.2588,250.1298,172.5267,135.229
32502,-0.3638,-0.3206,0.4561,250.1298,124.626,111.1527
32522,-0.4893,0.2043,0.6479,250.1298,174.0992,108.7863
32542,-0.8835,0.5576,1.2195,241.8168,250.1298,115.7023
32562,-1.7935,0.991,1.9999,90.0763,155.3282,44.7634
32582,-1.7446,1.1213,1.9999,-87.4427,-12.6947,-97.458
32602,-1.1743,0.8594,1.8777,-232.7786,-97.8015,-186.5649
32622,-1.283,0.6804,1.1108,-250.1374,-144.5725,-226.7099
32642,-1.0173,0.6863,0.4604,-250.1374,-209.9542,-250.1374
32662,-0.2043,-0.24,-0.4976,-250.1374,-247.6183,-245.3893
32682,0.3501,-0.7454,-0.8557,-250.1374,-250.1374,-250.1374
32702,0.8206,-0.7749,-1.073,-250.1374,-239.0687,-242.374
32722,1.0227,-0.6472,-1.2371,-250.1374,-194.6183,-157.855
32742,1.1401,-0.8999,-1.3054,-236.7328,-155.1069,-30.4504
32762,1.1387,-1.7446,-1.3572,-132.916,-132.4809,24.9542
32782,1.4712,-1.7205,-1.3523,31.3893,-107.145,64.8473
32802,1.5627,-2,-1.6582,93.8626,-54.9771,76.9847
32822,1.4854,-1.6443,-1.4954,246.374,-0.0458,105.5573
32842,1.0146,-1.2544,-1.1384,250.1298,74.3817,125.6794
32862,0.8503,-1.3245,-1.1731,250.1298,132.5878,84.1145
32882,0.5476,-0.9558,-1.313,250.1298,201.8244,84.5649
32902,-0.1709,-0.3259,-0.7917,250.1298,239.9847,157.4962
32922,-0.5925,0.5742,0.0112,250.1298,177.9084,140.6107
32942,-0.6328,0.6567,0.5679,250.1298,214.4427,77.5343
32962,-1.5161,0.7158,1.6187,196.2977,188.8626,-88.4046
32982,-1.8591,1.2461,1.9999,14.8779,143.0153,-197.4122
33002,-1.7654,1.3096,1.9999,-167.2519,61.7557,-187.4427
33022,-1.615,0.3503,1.9999,-250.1374,-51.0229,-173.4504
33042,-1.2974,-0.3325,1.219,-250.1374,-159.771,-217.6718
33062,-0.5471,-0.3411,0.5098,-250.1374,-230.2519,-250.1374
33082,-0.2974,-0.4128,-0.01,-250.1374,-249.458,-250.1374
33102,-0.2322,-0.1716,0.2078,-250.1374,-250.1374,-232.4962
33122,0.7229,-0.8374,-1.0173,-241.7405,-250.1374,-212.0153
33142,1.4382,-1.1414,-1.406,-179.8015,-243.0916,-123.4351
33162,1.2388,-1.0259,-1.1531,-118.6031,-193.9237,-82.6031
33182,1.7627,-0.7341,-1.2988,-117.3588,-148.2672,-120.2672
33202,1.9999,-1.0537,-1.7434,-47.6183,-42.5496,-62.1756
33222,1.9999,-1.3,-1.5076,78.084,46.8321,61.5038
33242,1.7056,-0.9211,-1.1348,181.7939,93.9695,129.6641
33262,1.3252,-0.6216,-0.7485,193,123.3893,237.8855
33282,1.4165,-0.8232,-0.9771,233.4733,175.4809,242.4886
33302,1.0637,-0.7632,-1.0681,250.1298,250.1298,229.3282
33322,0.0632,-0.1855,-0.7708,250.1298,250.1298,234.4809
33342,-0.8367,0.2544,0.2087,250.1298,250.1298,238.2824
33362,-0.7087,0.2466,0.4192,174.4962,250.1298,200.3359
33382,-1.9956,-0.0923,1.0735,141.8473,250.1298,23.1985
33402,-2,0.1267,1.9999,8.0687,142.6336,-206.9084
33422,-2,0.3074,1.7998,-129.7786,38.7176,-250.1374
33442,-1.4609,0.0432,1.3955,-199.1603,-64.9237,-217.2214
33462,-1.342,-0.5789,0.7839,-219.5649,-189.3893,-195.9924
33482,-0.5786,-0.531,-0.094,-250.1374,-250.1374,-247.0992
33502,-0.3633,-0.4731,-0.2996,-202.4275,-250.1374,-250.1374
33522,0.1255,-0.2896,-0.8142,-221.1603,-250.1374,-212.6183
33542,0.915,-0.7039,-1.4763,-177.7863,-250.1374,-158.1527
33562,1.9999,-1.2788,-1.9688,-159.2366,-250.1374,-192.3588
33582,1.9999,-0.7371,-1.8699,-74.9618,-86.5802,-122.2901
33602,1.8276,-0.6975,-1.0647,-32.5725,-2.8702,-70.0458
33622,1.8496,-1.0791,-1.0776,50.4427,13.3817,99.5191
33642,1.7151,-1.1848,-1.0103,135.8626,46.3435,193.2672
33662,1.9077,-0.7659,-1.1091,219.1069,153.4809,250.1298
33682,1.5334,-0.7771,-1.083,250.1298,250.1298,247.0076
33702,0.3499,-0.3257,-0.613,250.1298,250.1298,98.4122
33722,-0.2229,-0.1909,-0.2656,171.2977,250.1298,-5.5573
33742,-1.5583,-0.2161,0.3618,80.313,250.1298,-21.8015
33762,-1.9607,-0.4092,1.1345,-35.9008,216.9389,-33.9924
33782,-1.8074,-0.303,1.3813,-51.3053,146.626,-81.1908
33802,-1.7417,-0.1946,1.5696,-121.1679,30.084,-132.4046
33822,-1.2292,-0.4255,0.9868,-162.1985,-105.5802,-119.4122
33842,-1.0933,-0.6467,0.4983,-137.6488,-240.0076,-109.2977
33862,-0.4219,-0.2878,-0.313,-186.7328,-250.1374,-121.229
33882,-0.0889,-0.5579,-0.4778,-145.4427,-250.1374,-92.8015
33902,0.2512,-0.7869,-0.9646,-149.7023,-250.1374,-86.3511
33922,1.0474,-1.2432,-1.4998,-197.4427,-250.1374,-250.1374
33942,1.9999,-0.5972,-1.8931,-135.5878,-161.0992,-250.1374
33962,1.9999,-0.427,-1.5078,-59.4962,-0.6565,-151.6183
33982,1.6423,-0.6414,-1.0618,8.9924,-28.6336,-31.8244
34002,1.9999,-0.5415,-1.2915,86.6336,-19.6641,142.0992
34023,1.9999,-0.3359,-1.1145,142.2748,63.6565,250.1298
34043,1.9541,-0.1421,-0.8972,162.0382,176.3435,250.1298
34063,1.3899,-0.2493,-0.7214,132.8015,250.1298,148.458
34083,0.9724,-0.3401,-0.7383,114.5725,250.1298,165.9084
34103,-0.4033,-0.5544,-0.5798,120.3817,250.1298,175.7099
34123,-0.9805,-0.6924,-0.1389,103.1756,250.1298,182.4657
34143,-1.3149,-0.8477,0.2588,97.6031,250.1298,198.8321
34163,-1.5588,-0.7708,0.7397,74.7863,152.7252,149.0458
34183,-1.8391,-0.5913,1.165,21.229,24.1756,-10.3969
34203,-1.6538,-0.5332,1.0405,-49.4656,-90.9618,-162.0992
34223,-1.3792,-0.6499,0.7078,-78.1374,-162,-224.7328
34243,-1.104,-0.2754,0.3264,-80.1527,-250.1374,-250.1374
34263,-0.6475,-0.1421,-0.0908,-101.1603,-250.1374,-250.1374
34283,0.0413,0.1057,-0.6313,-123.687,-250.1374,-223.4504
34303,0.6353,-0.1602,-1.1782,-98.9771,-250.1374,-157.8168
34323,1.6895,-0.7397,-1.5593,-74.4351,-250.1374,-111.0382
34343,1.9999,-0.6682,-1.9963,-117.1679,-154.4351,-173.5191
34363,1.9999,-0.321,-1.7266,-29.4427,11.0687,-70.5954
34383,1.9999,-0.4485,-1.3196,63.8626,58.9389,106.5496
34403,1.8782,-0.6443,-1.1824,156.7176,82.374,230.1145
34423,1.8523,-0.5354,-1.0112,219.2595,160.8779,250.1298
34443,1.6323,-0.2783,-1.0479,250.1298,250.1298,250.1298
34463,0.7927,-0.3242,-0.8855,250.1298,250.1298,250.1298
34483,0.1987,-0.1003,-0.6775,250.1298,250.1298,250.1298
34503,-0.6125,0.2183,-0.0742,250.1298,250.1298,246.0992
34523,-1.1804,0.1985,0.3311,196.4809,232.5496,199.458
34543,-2,-0.394,0.8032,109.5573,188.9237,120.0534
34563,-2,-0.4978,1.3816,8.4122,75.0916,-128.2672
34583,-2,0.0615,1.3967,-79.5115,-37.687,-250.1374
34603,-1.8347,-0.2173,1.1011,-145.6718,-162.229,-250.1374
34623,-1.1682,-0.5259,0.3733,-173.0458,-250.1374,-250.1374
34643,-0.2634,-0.7715,-0.4089,-115.6489,-250.1374,-250.1374
34663,0.5298,-0.6306,-0.8342,-56.6641,-250.1374,-250.1374
34683,1.929,-0.5796,-0.9519,-75.374,-250.1374,-250.1374
34703,1.9999,-0.8335,-1.2439,-81.6947,-162.9237,-234.0458
34723,1.9999,-0.6484,-1.1724,-6.3588,-44.1145,-164.0153
34743,1.9999,-0.4646,-1.0334,65.8015,-11.5573,-15.9618
34763,1.9999,-0.406,-1.1111,120.9847,92.9313,112.084
34783,1.9999,-0.4641,-0.8606,163.0153,194.2672,154.687
34803,1.7783,-0.1809,-0.572,178.458,250.1298,197.2443
34823,1.1501,-0.0188,-0.3662,160.7176,250.1298,250.1298
34843,-0.2583,-0.2251,-0.1206,171.3588,250.1298,250.1298
34863,-1.0225,-0.4756,0.3274,160.9695,250.1298,250.1298
34883,-1.1765,-0.4226,0.5779,128.0382,216.9313,250.1298
34903,-1.6504,-0.3589,1.0786,70.1908,204.2137,91.4962
34923,-2,-0.2,1.6875,-18.1145,57.9466,-123.7023
34943,-1.7395,-0.0608,1.3574,-86.0076,-91.1527,-186.8931
34963,-1.3521,-0.356,0.8396,-102.8321,-206.6031,-133.9237
34983,-1.1187,-0.5952,0.4478,-98.8168,-250.1374,-111.6641
35003,-0.3723,-0.6316,-0.0767,-115.145,-250.1374,-113.8244
35023,0.4595,-0.6338,-0.2329,-84.1985,-250.1374,-134.2443
35043,1.1682,-0.8911,-0.5986,-107.9695,-250.1374,-195.5725
35063,1.9999,-0.9766,-0.9519,-98.1145,-227.0611,-225.1603
35083,1.9999,-1.2954,-1.0615,-51.5344,-62.7786,-194.7328
35103,1.9999,-1.0339,-0.7966,22.7176,15.2595,-120.6107
35123,1.9999,-0.7412,-0.7844,107.855,62.0305,31.9466
35143,1.9999,-0.7585,-0.7896,140.3282,153.2901,101.1145
35163,1.7686,-0.3735,-0.4863,187.0458,233.7939,127.7557
35183,1.2512,-0.1643,-0.1582,150.4886,250.1298,159.9618
35203,0.6365,0.0637,0.092,120.2366,250.1298,221.1985
35223,-0.1301,-0.092,0.2927,62.374,250.1298,250.1298
35243,-0.8032,-0.4116,0.4636,49.9924,250.1298,245.1374
35263,-1.146,-0.4119,0.7637,96.5115,186.5954,218.084
35283,-1.3667,-0.0647,1.2739,40.8779,103.8092,108.6718
35303,-1.197,-0.2241,1.1948,-51.8321,39.8321,16.6107
35323,-0.3835,-0.887,0.7192,-54.1527,-13.2901,33.0076
35343,0.2517,-0.9688,0.4683,34.2519,-7.8244,111.8931
35363,0.0276,-0.6953,0.7405,72.8321,-5.8931,130.3588
35383,0.1057,-0.7139,0.8142,44.6794,1.1908,119.084
35403,0.2051,-0.8374,0.688,57.8168,15.8702,153.5954
35423,-0.0256,-0.6436,0.7473,128.6412,21.8702,222.6947
35443,-0.2295,-0.2461,0.8884,155.8931,11.3282,238.771
35463,-0.125,-0.6509,0.9143,108.4962,3.0458,206.2061
35483,-0.2029,-0.907,0.8337,84.3817,23.0305,162.3512
35503,-0.5186,-0.7104,0.8604,104.0458,37.5267,91.4275
35523,-0.509,-0.4094,0.9441,115.3969,55.9618,80.2672
35543,-0.5413,-0.4348,1.1011,71.5725,34.2061,31.4962
35563,-0.4277,-0.5005,0.9934,27.0534,4.7405,-13.3664
35583,-0.3772,-0.7676,0.8879,20.4427,-1.5496,-1.8321
35603,-0.3931,-0.7776,0.9543,28.6031,25.4886,47.5191
35623,-0.3887,-0.7117,1.0161,35.9084,16.7481,25.9771
35643,-0.4329,-0.6934,1.0334,16.4656,2.7481,-4.5954
35663,-0.3977,-0.6985,0.9531,-0.7252,-22.0305,-40.8092
35683,-0.4265,-0.6465,0.9836,-15.8321,-37.855,-83.1679
35703,-0.3289,-0.6096,0.9148,-35.1298,-57.5496,-92.2061
35723,-0.1707,-0.7166,0.8904,-51.4656,-49.5573,-55.6489
35743,-0.0122,-0.6006,0.8657,-80.1069,-50.2137,-30.0763
35763,-0.2205,-0.8091,0.6553,-88.1374,-47.0916,-31.4046
35783,-0.2754,0.1074,1.7566,165.3588,59.9618,31.7786
35803,-0.0645,-1.4771,1.2769,197.1832,-184.4504,-32.5649
35823,-0.2354,-0.9199,0.8914,98.5267,-126.1374,-41.7481
35843,0.1685,-0.8064,0.9661,86.0458,-121.2519,-39.0305
35863,-0.0315,-0.6575,0.854,109.6718,-119.6183,-40.1374
35883,0.1606,-0.5667,0.9946,111.0916,-147.4275,-17.4198
35903,0.1689,-0.5889,0.9656,116.313,-140.4733,14.0687
35923,-0.0398,-0.4829,1.094,174.1298,-27.229,57.626
35943,0.0378,-0.3462,0.9429,192.4657,-30.1145,56.3282
35963,-0.019,-0.2888,1.1072,227.7405,-34.0763,64.6336
35983,-0.0327,-0.0872,1.8953,163.229,-23.7176,51.2443
36003,0.0806,-0.0854,1.7039,54.8244,-17.0076,32.7176
36024,-0.0273,-0.2793,1.1399,21.542,-18.1527,27.3664
36044,-0.0674,-0.2244,0.8701,57.9008,-0.7557,6.6489
36064,0.0593,-0.1384,1.1946,75.8855,11.4733,4.4656
36084,0.095,-0.1113,1.1877,79.7634,1.0534,14.7252
36104,0.1367,-0.0942,1.1094,92.1298,-2.7557,28.9008
36124,-0.1387,-0.1045,1.4734,83.7023,42.3511,14.0458
36144,0.0725,-0.0796,1.3267,48.7863,39.7481,8.4962
36164,-0.0073,-0.0459,1.293,44.5038,32.5649,13.3282
36184,0.0427,-0.0232,1.2444,35.7023,22.2901,15.2672
36204,-0.1101,-0.0195,1.1357,41.687,-4.9618,25.3893
36224,0.6516,-0.0667,1.1956,97.1527,-86.374,45.8015
36244,-0.011,0.0044,1.1658,5.2137,-27.2061,37.2061
36264,0.144,0.0493,1.2659,-4.3817,10.2443,39.2519
36284,0.0239,-0.0195,1.2175,-1.6947,-15.542,51.916
36304,0.0735,0.0022,1.1765,-3.6794,-8.1145,55.8321
36324,-0.0391,-0.0339,1.29,0.3206,-21.4886,57.1908
36344,0.0476,-0.0083,1.218,-2.4351,-9.2366,49.2901
36364,0.0391,-0.0164,1.2258,-0.8397,-11.6107,46.6107
36384,0.0464,-0.0144,1.2502,-2.5649,-4.8168,45.2824
36404,0.0144,-0.0303,1.2292,-2.0763,-5.2061,44.1374
36424,0.0317,-0.0356,1.1545,-2.0076,-1.7023,37.9924
36444,-0.0071,-0.0396,1.2405,-1.3053,-1.1985,28.229
36464,0.0085,-0.0432,1.2126,-1.9924,-1.2595,17.8015
36484,-0.0078,-0.0281,1.229,-2.1069,-3.4351,8.0153
36504,0.0417,-0.0176,1.2073,0.2901,-2.5802,2.6031
36524,0.0364,-0.0181,1.2043,-1.0611,0.0916,2.8779
36544,0.0449,-0.0156,1.2317,-1.9084,3.7099,2.9008
36564,0.0298,-0.0188,1.2234,-1.7099,3.4351,2.4351
36584,0.0249,-0.0137,1.2102,-1.0458,-0.8321,3.2824
36604,0.0239,-0.0139,1.2112,-0.1221,-5.0153,3.6794
36624,0.0388,-0.0168,1.229,-0.2748,-5.2672,3.8473
36644,0.0461,-0.011,1.2417,-1.1221,-1.6489,3.5954
36664,0.0386,-0.0164,1.2209,-1.2901,0.9618,3.4427
36684,0.0229,-0.0183,1.2268,-1.2595,0.1832,3.5725
36704,0.0249,-0.0242,1.2261,-0.9695,-2.3206,3.4122
36724,0.0315,-0.0144,1.2468,-0.7023,-3.4656,3.4504
36744,0.05,-0.0239,1.2544,-1.0076,-3.0687,3.4046
36764,0.041,-0.0176,1.2529,-0.9618,-1.8855,3.5725
36784,0.0452,-0.0139,1.2346,-1.0458,-1.8092,3.5802
36804,0.0435,-0.0168,1.2512,-0.9847,-1.7328,3.3817
36824,0.0386,-0.0176,1.2402,-0.6947,-1.1603,3.2519
36844,0.0327,-0.0181,1.2441,-0.8015,-0.8931,3.2748
36864,0.0322,-0.0161,1.228,-0.5649,-1.9771,3.5191
36884,0.0381,-0.0127,1.2302,-0.5267,-2.9313,3.3664
36904,0.042,-0.0085,1.2422,-0.4733,-2.0763,3.3893
36924,0.0383,-0.0222,1.2439,-0.8092,0.5573,3.3817
36944,0.0281,-0.019,1.2175,-0.5573,0.4198,3.3893
36964,0.0217,-0.0229,1.2188,-0.2901,-2.0153,3.458
36984,0.0212,-0.0203,1.2048,0,-2.7099,3.313
37004,0.032,-0.0161,1.2297,-0.1832,-2.0229,3.4427
37024,0.0298,-0.0171,1.2329,-0.7481,-0.5267,3.2748
37044,0.0237,-0.0203,1.2053,-0.6031,-0.4885,3.3969
37064,0.0249,-0.0171,1.2205,-0.626,-1.4885,3.4351
37084,0.0264,-0.0229,1.2222,-0.855,-2.3817,3.313
37104,0.0251,-0.0164,1.2271,-0.5954,-2.4809,3.6718
37124,0.0317,-0.0183,1.2312,-0.6947,-1.8855,3.4198
37144,0.033,-0.0134,1.2173,-1.1756,-1.2901,3.6031
37164,0.0325,-0.0134,1.2288,-0.9924,-2.1908,3.3435
37184,0.0361,-0.0159,1.2307,-0.7176,-2.8931,3.3282
37204,0.04,-0.0164,1.2397,-0.771,-2.4122,3.4275
37224,0.0396,-0.0149,1.262,-1.1679,-1.1298,3.3893
37244,0.0354,-0.0166,1.2397,-1.0763,-1.5267,3.5038
37264,0.0327,-0.0239,1.2378,-0.6183,-2.4427,3.4351
37284,0.0332,-0.01,1.2478,-0.7557,-2.5344,3.6031
37304,0.0359,-0.0122,1.2603,-0.8473,-1.5878,3.5038
37324,0.0398,-0.0125,1.2395,-0.626,-0.3893,3.4656
37344,0.0444,-0.0139,1.2173,-0.4962,-1.0305,3.4504
37364,0.0361,-0.0168,1.2351,-0.6183,-2,3.5802
37384,0.032,-0.0178,1.24,-0.2748,-1.687,3.4351
37404,0.0283,-0.0261,1.2322,-0.229,-0.9771,3.2901
37424,0.0303,-0.0149,1.2202,-0.1756,-1,3.5267
37444,0.0232,-0.0193,1.2058,-0.2748,-1.5115,3.5573
37464,0.0278,-0.0198,1.2122,-0.1832,-2.1832,3.4962
37484,0.0332,-0.0103,1.2312,-0.5725,-1.6565,3.4427
37504,0.0312,-0.0244,1.2122,-0.5344,-1.2137,3.5267
37524,0.0278,-0.0239,1.2188,-0.6107,-1.374,3.5878
37544,0.0222,-0.0208,1.2085,-0.6489,-2.4122,3.4122
37564,0.0293,-0.02,1.2168,-0.7176,-2.771,3.458
37584,0.0349,-0.0183,1.2168,-1.0611,-2.0763,3.3969
37604,0.0295,-0.0161,1.2236,-0.7786,-1.5649,3.5573
37624,0.031,-0.0173,1.2261,-1.0076,-1.2519,3.5038
37644,0.0273,-0.0159,1.2444,-1.0687,-2.1985,3.5496
37664,0.0334,-0.0156,1.2527,-0.9084,-2.7252,3.3588
37684,0.0376,-0.0146,1.2573,-1.2214,-1.8397,3.2977
37704,0.0327,-0.0168,1.2468,-0.916,-1.5038,3.4656
37724,0.0391,-0.0142,1.2588,-0.8092,-1.6183,3.3893
37744,0.0352,-0.0125,1.23,-1.0763,-1.6031,3.458
37764,0.0293,-0.0142,1.2451,-0.9771,-1.687,3.2443
37784,0.0334,-0.0144,1.2441,-0.6718,-1.2214,3.2137
37804,0.0286,-0.0195,1.2317,-0.7099,-1.3053,3.5725
37824,0.0288,-0.0225,1.2244,-0.3664,-1.8244,3.3053
37844,0.0308,-0.0198,1.2275,-0.2443,-2.1374,3.3511
37864,0.0354,-0.0178,1.2156,-0.4198,-1.1985,3.4046
37884,0.0359,-0.019,1.2373,-0.5496,-1.5191,3.5878
37904,0.032,-0.019,1.2451,-0.3435,-1.4275,3.458
37924,0.0293,-0.0212,1.2043,-0.1908,-1.9771,3.6641
37944,0.032,-0.0249,1.2124,-0.313,-2.542,3.5573
37964,0.0366,-0.0166,1.2268,-0.4885,-1.8321,3.3435
37984,0.0247,-0.0242,1.2141,-0.4656,-0.6641,3.4427
38004,0.0283,-0.0225,1.2231,-0.5496,-1.687,3.5649
38025,0.0276,-0.0139,1.2222,-0.8168,-2.3206,3.7099
38045,0.0317,-0.0168,1.2273,-0.6947,-2.5573,3.6107
38065,0.0364,-0.0173,1.2346,-1.0382,-2.2137,3.3969
38085,0.0322,-0.0176,1.248,-0.8626,-1.542,3.3588
38105,0.042,-0.0161,1.239,-0.9771,-1.7634,3.1679
38125,0.0347,-0.0134,1.2375,-0.9542,-2.5725,3.6412
38145,0.0371,-0.0115,1.2617,-0.7634,-2.1985,3.5267
38165,0.0403,-0.0176,1.2505,-1.0076,-1.6565,3.374
38185,0.0466,-0.0156,1.2478,-0.6412,-1.6641,3.2137
38205,0.0347,-0.0166,1.2441,-0.458,-1.5649,3.4427
38225,0.0322,-0.0127,1.238,-0.7023,-1.7252,3.5496
38245,0.0295,-0.0176,1.2351,-0.5038,-1.9618,3.2443
38265,0.0276,-0.0134,1.25,-0.7099,-1.2595,3.4504
38285,0.0354,-0.0161,1.241,-0.8092,-0.7786,3.2824
38305,0.0349,-0.0237,1.2083,-0.2824,-1.3588,3.5038
38325,0.0366,-0.0244,1.2153,-0.4198,-1.6718,3.5954
38345,0.0259,-0.0271,1.2217,-0.458,-1.2214,3.4733
38365,0.0352,-0.0188,1.2336,-0.3053,-1.7481,3.5038
38385,0.0247,-0.0242,1.2144,-0.1832,-1.5649,3.3664
38405,0.0383,-0.0239,1.2356,-0.4427,-1.8321,3.6031
38425,0.0303,-0.0225,1.2061,-0.1145,-2.9008,3.542
38445,0.0308,-0.0195,1.2332,-0.5954,-2.3359,3.374
38465,0.0356,-0.0239,1.2229,-0.7481,-1.9084,3.6412
38485,0.0342,-0.0098,1.2297,-0.6489,-1.9847,3.4046
38505,0.0325,-0.0142,1.2366,-0.687,-1.8855,3.5115
38525,0.0271,-0.0161,1.2483,-0.916,-1.0611,3.3588
38545,0.033,-0.0173,1.2336,-1,-1.5802,3.626
38565,0.0437,-0.0159,1.2363,-0.8015,-1.6183,3.3282
38585,0.0405,-0.009,1.2415,-0.8702,-1.5878,3.5725
38605,0.0364,-0.0217,1.2476,-0.8397,-1.7252,3.3511
38625,0.0334,-0.0146,1.2441,-0.9695,-1.7099,3.2443
38645,0.0312,-0.0132,1.2437,-1.0611,-1.7252,3.4504
38665,0.0305,-0.0205,1.2603,-0.6718,-2.0076,3.1756
38685,0.0266,-0.0176,1.2415,-0.771,-1.5344,3.2748
38705,0.0369,-0.0112,1.2444,-0.5878,-1.6107,3.2366
38725,0.0359,-0.0205,1.2297,-0.4809,-1.8244,3.5573
38745,0.0312,-0.0181,1.238,-0.4351,-2.0076,3.4504
38765,0.0361,-0.0168,1.2278,-0.3588,-1.9466,3.4275
38785,0.0242,-0.0227,1.2085,-0.4198,-1.8244,3.4962
38805,0.0273,-0.0234,1.219,-0.6107,-1.0229,3.3359
38825,0.0303,-0.0229,1.2249,-0.4809,-1.2214,3.4427
38845,0.0417,-0.019,1.2249,-0.4809,-1.1221,3.5115
38865,0.0325,-0.0239,1.2166,-0.3053,-1.7099,3.6641
38885,0.0327,-0.0239,1.2246,-0.4046,-1.8931,3.5649
38905,0.0359,-0.0212,1.2175,-0.3206,-2.1221,3.6412
38925,0.0334,-0.0198,1.2261,-0.7939,-1.542,3.6183
38945,0.0371,-0.019,1.2209,-0.8397,-1.1374,3.4962
38965,0.0361,-0.0125,1.2339,-1.0611,-1.4962,3.8321
38985,0.0281,-0.009,1.2231,-0.8473,-2.0763,4.4275
39005,0.0371,-0.0188,1.2393,-0.5802,-2.458,5.0305
39025,0.0325,-0.019,1.24,-0.7099,-2.3435,5.4198
39045,0.0254,-0.0081,1.2354,-0.4885,-1.9618,4.9771
39065,0.0212,-0.02,1.2263,-0.2214,-1.7939,4.3053
39085,0.032,-0.0188,1.2249,-0.4427,-1.6489,3.4198
39105,0.0229,-0.0112,1.249,-0.9389,-1.2366,3.3359
39125,0.0217,-0.0186,1.2278,-0.8244,-1.2366,3.3588
39145,0.0222,-0.0122,1.2349,-0.7786,-1.8015,3.5802
39165,0.0222,-0.0188,1.2234,-0.4962,-1.8855,3.4427
39185,0.0278,-0.0222,1.2202,-0.6412,-1.9847,3.5344
39205,0.0312,-0.0159,1.2292,-0.5191,-1.5878,3.7786
39225,0.0271,-0.0286,1.2288,-0.7939,-0.916,3.3206
39245,0.0349,-0.0242,1.2065,-0.5573,-1.3511,3.4046
39265,0.0288,-0.0251,1.2297,-0.687,-1.7786,3.6641
39285,0.0349,-0.0264,1.218,-0.2595,-2.0534,3.916
39305,0.0369,-0.0205,1.231,-0.687,-1.9695,3.5725
39325,0.0305,-0.0295,1.2073,-0.6565,-1.5878,3.5878
39345,0.0376,-0.0161,1.2332,-1.3359,-1.0153,3.3359
39365,0.0259,-0.0088,1.2576,-6.8015,13.9924,-0.542
39385,0.0261,0.0024,1.3108,-29.0382,26.2977,-5.9389
39405,-0.0388,-0.0706,1.2632,-25.2443,-34.4733,0.3206
39425,0.0156,-0.0459,1.2246,-28.6107,-30.8168,-2.6107
39445,0.1758,-0.0854,0.9485,-10.7328,-5.7481,2.0229
39465,0.0127,-0.0464,1.2981,6.2137,4.4656,4.2824
39485,0.0432,-0.043,1.2327,-2.916,-5.0229,5.1908
39505,0.0608,-0.0557,1.157,8.0382,6.7939,11.7328
39525,-0.01,-0.0652,1.1992,17.1527,12.5573,9.1145
39545,-0.0015,-0.0303,1.2805,15.0229,6.1374,4.7405
39565,0.0247,-0.0161,1.27,7.1908,-1.6718,7.4962
39585,0.031,-0.0242,1.2451,3.7786,-3.458,11.8092
39605,0.0002,-0.0366,1.2368,4.1069,-9.7481,13.3206
39625,0.0217,-0.0317,1.2183,5.4733,-14.1374,13.8092
39645,0.0327,-0.0291,1.2209,5.6947,-12.0992,13.8626
39665,0.061,-0.0161,1.2412,2.2061,-3.4809,13.2443
39685,0.0327,-0.0352,1.2324,0.1069,2.9924,13.0229
39705,0.0166,-0.0383,1.2209,1.9084,3.2748,10.6183
39725,0.0144,-0.0315,1.2502,4.145,-2.7863,9.1374
39745,0.0151,-0.0286,1.2476,4.5496,-8.916,7.8092
39765,0.0273,-0.0305,1.2336,3.6718,-9.1985,5.7863
39785,0.0515,-0.0037,1.3066,0.6489,0.3664,3.1832
39805,0.0383,-0.0195,1.2322,-4,13.5649,2.3588
39825,0.0203,-0.0278,1.2422,-4.2748,11.916,1.4656
39845,-0.001,-0.0303,1.2446,-3.0992,2.5038,-0.7099
39865,0.0215,-0.0027,1.2781,3.1221,-13.0611,1.1603
39885,0.0154,0.0093,1.3352,5.7863,-9.1221,5.2061
39905,0.0532,-0.012,1.2292,-1.4198,1.3893,5.4046
39925,0.0105,-0.019,1.2402,-4.2977,11.7405,7.5344
39945,-0.0156,-0.0339,1.25,-2.9618,8.9542,2.1221
39965,-0.0242,-0.0337,1.2544,-1.3511,1.6412,-4.5802
39985,0.0298,-0.0139,1.2151,2.2824,-2.3206,-5.1069
40005,0.0037,-0.0276,1.2109,0.7252,-5.0458,-0.229
40026,0.0371,-0.0127,1.238,0.374,-5.0916,2.9084
40046,0.0352,-0.0144,1.2141,-0.0611,-2.5725,4.771
40066,0.0146,-0.0254,1.2336,-0.5954,-0.626,4.8855
40086,0.0042,-0.0164,1.2292,-0.6336,-1.6947,3.3893
40106,0.001,-0.0256,1.2234,-0.5802,-2.1832,2.2824
40126,0.0044,-0.0344,1.2144,0.5038,-3.0305,-3.9618
40146,0.0686,-0.0024,1.2339,-0.6718,-1.7023,0.9389
40166,0.0117,-0.0244,1.2471,-0.8931,-0.8244,3.5649
40186,0.0347,-0.0181,1.2468,-1.1221,-0.2214,4.6412
40206,0.0107,-0.0225,1.2471,-2.1298,1.0076,9.7328
40226,0.0125,-0.0254,1.2466,-0.916,-2.3511,6.8321
40246,0.0337,-0.0166,1.2524,-1.374,0.3664,6.3817
40266,0.0269,-0.02,1.2507,-0.8702,-4.6718,8.6641
40286,0.0952,0.0408,1.3015,-3.1221,-14.5878,24.5954
40306,0.1907,0.1465,1.2158,-14.7328,-15.9695,77.2824
40326,0.105,-0.074,1.3337,-23.3588,-14.4809,95
40346,-0.1296,-0.2429,1.9363,-2.5649,-100.1908,49.8244
40366,-0.009,0.0234,1.5776,-26.7786,-151.5114,33.1603
40386,0.4861,-0.0803,1.4055,-23.9695,-102.0458,6.5725
40406,0.5388,0.0454,1.9999,-32.4198,-62.3359,24.374
40426,0.4089,-0.0388,1.9999,-88.9237,-71.9084,35.374
40446,0.606,0.0996,1.9999,-137.6412,-109.2443,52.0229
40466,0.5327,0.0427,1.9999,-123.6794,-208.9466,76.3511
40486,0.4814,-0.1689,1.7891,-77.6107,-250.1374,91.5115
40506,0.2754,-0.2776,1.8589,-108.458,-223.7405,97.7481
40526,0.4778,-0.229,1.999,-158.458,-177.6565,95.2595
40546,0.1953,-0.2043,1.5469,-198.1679,-197.2824,95.8931
40566,-0.2485,-0.4534,1.1013,-171.4427,-250.1374,41.7786
40586,-0.0361,-0.3765,0.9165,-114.2901,-250.1374,-5.7634
40606,-0.0471,-0.3164,0.9624,-99.5649,-250.1374,-18.2595
40626,-0.3564,-0.6296,0.2234,-133.7786,-250.1374,-15.3206
40646,-1.0862,-0.9644,-0.6658,-125.7557,-198.5038,-22.7176
40666,-1.8879,-1.2444,-1.2048,-46.4122,-155.4504,-128.4427
40686,-1.4802,-0.8923,-1.0378,57.458,-178.626,-250.1374
40706,-1.0547,-0.4507,-0.457,102.4427,-201.3282,-250.1374
40726,-1.0527,-0.0681,0.2246,79.5343,-235.4962,-250.1374
40746,-0.8862,0.5247,0.2957,26.8626,-250.1374,-250.1374
40766,-0.2834,1.1714,-0.1853,-9.5878,-200.4733,-250.1374
40786,0.4878,1.3452,0.4187,-10.3053,-100.1298,-250.1374
40806,0.8083,1.5022,0.8237,-42.8931,-93.5191,-250.1374
40826,0.7256,1.5483,0.7371,-85.0916,-98.916,-250.1374
40846,0.5703,1.7629,0.0754,-104.8244,-92.1298,-250.1374
40866,1.23,1.9999,-0.3535,-59.6183,-126.5496,-250.1374
40886,1.9395,1.9999,-0.3435,-27.7023,-175.5802,-218.9618
40906,1.9999,1.9999,-0.8618,-53.9771,-139.2977,-82.1985
40926,1.9999,1.9999,-1.7219,-40.0229,-61.9695,57.4733
40946,1.9999,1.9999,-2,64.6718,3.626,171.7405
40966,1.781,1.9999,-1.4321,153.9008,67.8015,250.1298
40986,1.4446,1.9999,-0.3435,163.0076,157.4351,250.1298
41006,1.1807,1.8987,0.5447,96.6947,228.2824,250.1298
41026,0.7561,1.4727,1.0889,-16.5038,250.1298,250.1298
41046,0.0315,0.998,0.8857,-171.4886,250.1298,250.1298
41066,-0.5728,0.5317,0.0339,-250.1374,250.1298,250.1298
41086,-1.1079,-0.1626,-0.7939,-250.1374,250.1298,250.1298
41106,-2,-0.7759,-1.052,-195.9618,250.1298,250.1298
41126,-2,-1.7246,-1.2078,67.1221,-136.9847,-34.8473
41146,-2,-1.1824,-0.6011,219,-250.1374,-250.1374
41166,-1.5562,-0.0547,0.1045,188.626,-250.1374,-250.1374
41186,-0.7556,0.8901,0.8069,127.0153,-250.1374,-250.1374
41206,0.3557,1.9999,0.3586,86.771,-250.1374,-250.1374
41226,1.1992,1.9999,-0.8188,162.7023,-250.1374,-250.1374
41246,1.9999,1.9999,-1.2776,172.9542,-250.1374,-250.1374
41266,1.9999,1.9999,-0.8015,32.3817,-250.1374,-182.542
41286,1.9999,1.9999,-1.384,-159.626,77.2443,113.6336
41306,1.886,1.9999,-2,-95.7634,153.8397,224.8855
41326,1.4373,1.9999,-2,133.9466,60.4427,231.3206
41346,1.4197,1.8774,-0.6372,226.4657,50.0611,249.4275
41366,1.6934,1.6943,0.761,161.7557,134.5267,250.1298
41386,1.1985,1.4629,1.0496,-2.9924,250.1298,250.1298
41406,0.4817,1.1624,0.4685,-121.5115,250.1298,250.1298
41426,0.0149,0.7571,0.0474,-144.0076,250.1298,250.1298
41446,-0.1743,0.3853,0.0764,-124.1527,217.5649,250.1298
41466,-0.3418,-0.0098,0.2283,-113.4885,158.687,250.1298
41486,-0.5923,-0.3132,0.1404,-143.8626,153.4657,250.1298
41506,-1.2273,-0.6455,-0.5457,-148.687,150.0229,250.1298
41526,-2,-1.4187,-1.5959,-40.2137,48.687,110.0229
41546,-2,-1.5642,-1.6504,140.3893,-143.5878,-212.7634
41566,-2,-0.5986,-0.6772,221.916,-209.5114,-250.1374
41586,-1.3896,0.46,0.3147,187.145,-185,-250.1374
41606,-0.7266,1.2053,1.0049,111.9237,-153.7863,-250.1374
41626,-0.2244,1.8018,0.9641,45.2137,-168.7099,-250.1374
41646,0.1445,1.9999,0.5803,26.6489,-250.1374,-250.1374
41666,0.9944,1.9999,-0.2507,34.9771,-250.1374,-250.1374
41686,1.9999,1.9999,-0.5046,2.5573,-250.1374,-250.1374
41706,1.9999,1.9999,-0.3882,-132.6947,-128.3206,-237.7405
41726,1.9999,1.9999,-1.5171,-200.7863,44.6336,-49.0458
41746,1.9999,1.9999,-2,-81.2824,54.3359,48.687
41766,1.9238,1.9999,-2,90.8855,28.7023,120.3511
41786,1.9592,1.9999,-1.0527,141.5573,86.4657,208.5267
41806,1.9999,1.9999,-0.0195,59.6183,250.1298,250.1298
41826,1.5996,1.9999,0.4045,-46.4198,250.1298,250.1298
41846,0.8062,1.8691,0.2039,-100.4657,250.1298,250.1298
41866,0.1807,1.3708,0.2319,-117.2977,250.1298,250.1298
41886,-0.0134,0.9705,0.3044,-168.4886,250.1298,250.1298
41906,-0.2825,0.6067,0.3936,-226.4198,250.1298,250.1298
41926,-0.4756,0.2898,0.2546,-250.1374,250.1298,250.1298
41946,-0.8435,-0.1277,-0.6416,-250.1374,250.1298,250.1298
41966,-0.8,-0.5056,-0.9431,-248.6107,250.1298,236.8015
41986,-0.9819,-0.6843,-1.512,-141.8626,250.1298,126.8397
42006,-1.5989,-0.7966,-1.9595,59.5191,37.7099,-5.5115
42027,-2,-0.6326,-1.8167,250.1298,-170.9084,-216.7328
42047,-1.6621,0.0347,-0.3794,250.1298,-171.4427,-250.1374
42067,-1.0581,0.8831,0.8293,250.1298,-201.1985,-250.1374
42087,-0.3948,1.6804,0.5327,250.1298,-250.1374,-250.1374
42107,-0.1516,1.9999,-0.8093,250.1298,-250.1374,-250.1374
42127,1.8005,1.9999,-1.8997,250.1298,-250.1374,-250.1374
42147,1.9999,1.9999,-0.5605,250.1298,-250.1374,-250.1374
42167,1.9999,1.9999,1.9999,69.3206,-117.0076,-205.8092
42187,1.9999,1.9999,0.3384,-250.1374,250.1298,96.9313
42207,1.9999,1.9999,-2,-250.1374,250.1298,233.7786
42227,1.9592,1.9999,-1.9634,-137.6031,250.1298,250.1298
42247,1.1882,1.5581,-0.3972,51.9847,62.771,250.1298
42267,1.3286,1.2209,1.4446,7.9847,70.5573,250.1298
42287,1.7241,1.3584,1.9558,-226.6488,250.1298,250.1298
42307,0.9927,1.4119,1.1592,-250.1374,250.1298,250.1298
42327,0.5664,1.1836,0.1792,-250.1374,250.1298,250.1298
42347,0.5632,0.8467,-0.4277,-250.1374,250.1298,250.1298
42367,0.4119,0.5273,-0.6865,-250.1374,250.1298,250.1298
42387,-0.0151,0.1243,-1.1672,-250.1374,250.1298,250.1298
42407,-0.5112,-0.3008,-1.6826,-250.1374,250.1298,171.2977
42427,-0.5383,-0.4395,-1.4712,-82.9924,170.1069,58.4733
42447,-0.3892,-0.3787,-1.5151,151.7176,-85.2977,-18.771
42467,-0.3774,-0.1853,-1.1809,250.1298,-250.1374,-87.7557
42487,-0.5378,0.0789,-0.7388,250.1298,-250.1374,-172.0458
42507,-0.6409,0.5259,-0.373,250.1298,-250.1374,-250.1374
42527,-0.4534,1.2893,-0.3335,250.1298,-250.1374,-250.1374
42547,0.3083,1.9999,-0.5579,250.1298,-250.1374,-250.1374
42567,1.9999,1.9999,-1.7261,250.1298,-250.1374,-250.1374
42587,1.9999,1.9999,-0.7434,250.1298,-250.1374,-250.1374
42607,1.9999,1.9999,1.9999,250.1298,-250.1374,-250.1374
42627,1.9999,1.9999,1.8567,-250.1374,250.1298,115.5267
42647,1.9999,1.9999,-1.5474,-250.1374,250.1298,250.1298
42667,1.5784,1.8357,-1.8186,-250.1374,250.1298,250.1298
42687,1.1362,1.2051,0.1221,-124.0153,250.1298,250.1298
42707,1.9893,1.2664,1.9999,-250.1374,250.1298,250.1298
42727,1.6011,1.5227,1.6655,-250.1374,250.1298,250.1298
42747,0.7991,1.2773,0.3196,-250.1374,250.1298,250.1298
42767,0.2651,0.8196,-0.5164,-250.1374,250.1298,250.1298
42787,-0.3284,0.0095,-1.4319,-250.1374,250.1298,217.1221
42807,-0.4697,-0.2637,-0.7883,-189.2901,250.1298,109.0992
42827,-0.9746,-0.4268,-1.3857,54.3893,-147.0229,5.0382
42847,-1.1477,-0.3035,-2,250.1298,-250.1374,-158.8855
42867,-0.4995,0.4668,-0.5432,250.1298,-250.1374,-250.1374
42887,0.3757,1.3113,0.0735,250.1298,-250.1374,-250.1374
42907,1.3557,1.9999,-1.05,250.1298,-250.1374,-250.1374
42927,1.9999,1.9999,-1.3672,250.1298,-250.1374,-250.1374
42947,1.9999,1.9999,1.074,250.1298,-250.1374,-250.1374
42967,1.9999,1.9999,1.9999,-51.6489,-8.4962,10.4504
42987,1.9999,1.9999,-0.4683,-250.1374,250.1298,250.1298
43007,1.4348,1.6729,-2,-250.1374,250.1298,250.1298
43027,0.875,1.1621,-0.9309,-58.1832,225.6107,250.1298
43047,1.4641,0.948,0.8853,-47.0305,208.6947,250.1298
43067,1.9999,1.3047,1.9119,-250.1374,250.1298,250.1298
43087,1.3767,1.4092,1.0112,-250.1374,250.1298,250.1298
43107,0.7788,1.1064,-0.1794,-250.1374,250.1298,250.1298
43127,0.4502,0.677,-0.6731,-250.1374,250.1298,250.1298
43147,-0.0427,-0.0027,-1.3672,-250.1374,250.1298,250.1298
43167,-0.0884,-0.1907,-0.2078,-250.1374,250.1298,176.0153
43187,-0.2422,-0.3081,-0.3655,-231.8244,250.1298,116.7023
43207,-0.2705,-0.3984,-0.8132,-76.9695,170.8473,66.8779
43227,-0.1729,-0.3491,-0.9258,89.542,63.9389,41.9924
43247,-0.083,-0.2021,-0.0923,211.8015,24.916,49.1298
43267,-0.2424,-0.2346,0.7876,211.8702,7.1145,73.7405
43287,-0.6179,-0.3174,0.7463,153.1527,123.6565,100.1221
43307,-0.8445,-0.3179,0.1787,160.3588,240.6031,106.7405
43327,-1.0037,-0.1467,0.3586,220.084,250.1298,89.2443
43347,-0.8337,-0.1763,1.697,210.1908,141.7863,75.7023
43367,-0.9851,-0.127,1.0054,182.9618,103.2443,63.9008
43387,-1.1711,-0.0684,1.095,180.2366,213.5649,51.7557
43407,-1.2524,-0.0281,1.8689,133.4351,250.1298,45.9695
43427,-1.1897,0.0098,1.9999,46.5878,250.1298,52.8244
43447,-1.27,-0.0676,1.989,8.916,202.1527,38.5344
43467,-1.3079,0.0203,1.9999,-7.8244,87.6718,13.5954
43487,-1.1575,0.1067,1.9999,-68.3511,49.7939,3.1756
43507,-1.1062,0.1731,1.9999,-154.5191,43.5267,2.1069
43527,-1.2449,0.241,1.7468,-230.5878,78.2595,-10.8244
43547,-1.2056,0.2546,1.2263,-250.1374,54.1374,-54.7634
43567,-0.783,0.2107,0.7249,-231.3817,-7.6947,-72.084
43587,-0.6416,0.2754,0.4551,-218.374,-6.4504,-55.7634
43607,-0.4932,0.0854,0.0679,-214.542,35.9084,-31.5114
43627,-0.2385,0.0134,-0.3027,-199.8626,100.2748,-16.2824
43647,0.0396,-0.1685,-0.855,-167.5878,155.5267,7.4046
43667,0.6758,-0.1943,-1.2419,-63.7557,106.7099,44.9008
43687,0.594,-0.1218,-1.3552,38.6718,71.4198,116.1603
43707,0.1389,-0.0879,-1.4849,125.3969,71.1298,164.145
43727,-0.2957,0.0591,-1.4922,208.5267,88.7328,195.3664
43747,-1.0161,0.1392,-1.1846,250.1298,114.1679,206.855
43767,-1.5513,0.1179,-0.208,250.1298,80.9924,188.7252
43787,-1.5093,0.1794,0.7412,250.1298,-9.7939,152.9847
43807,-1.7864,0.2361,0.6091,217.7557,-33.542,125.3282
43827,-2,0.2336,0.636,217.8702,-11.374,69.229
43847,-2,0.1885,1.8455,170.6488,-22.1527,-5.4962
43867,-1.8579,0.4275,1.9999,45.0611,-57.5038,-49.458
43887,-1.6116,0.647,1.9999,-62.2977,-50.2366,-51.9084
43907,-1.7915,0.5386,1.9771,-98.3664,-58.4962,-80.542
43927,-1.3477,0.6111,1.8223,-176.4351,-60.8855,-108.8244
43947,-1.0388,0.554,1.1008,-241.2748,-30.5573,-118.3588
43967,-0.6707,0.3792,0.6704,-250.1374,-34.5038,-116.8855
43987,-0.4456,0.3591,0.1196,-250.1374,3.8015,-87.0076
44007,-0.3345,0.1697,-0.6719,-250.1374,26.313,-77.2595
44028,0.114,-0.0684,-1.1663,-180.687,12.1069,-47.1985
44048,0.3552,-0.0754,-1.1619,-97.3206,-19.3969,5.5496
44068,0.3582,-0.0305,-1.5996,-9.2519,-23.542,88.2672
44088,-0.116,-0.0366,-1.8093,104.3206,-18.0916,140.0305
44108,-0.4277,0.1313,-1.9082,224.9389,18.1374,165.6107
44128,-0.6548,0.5273,-1.7661,250.1298,54.4427,190.2061
44148,-1.1868,0.8425,-0.8301,250.1298,26.5802,188.084
44168,-1.51,0.7429,0.9773,250.1298,-63.4275,159.9313
44188,-1.2874,0.7686,1.5112,250.1298,-87.2901,126.3588
44208,-1.5427,0.79,1.2036,250.1298,-21.9695,105.8702
44228,-1.7773,0.7722,1.9556,228.2137,-14.5267,46.6947
44248,-1.4963,0.8486,1.9999,92.6107,-6.7634,6.2443
44268,-1.439,1.0249,1.9999,-81.7634,-0.6641,-8.0687
44288,-1.5261,1.1228,1.9999,-209.8321,15.4351,-25.8931
44308,-1.6221,1.0549,1.2717,-250.1374,28.2672,-56.458
44328,-1.522,0.7346,0.7366,-250.1374,4.084,-98.1527
44348,-1.2832,0.5354,0.5522,-250.1374,-43.0229,-133.0687
44368,-0.9653,0.748,0.1609,-250.1374,-23.8473,-142.6794
44388,-0.6692,0.4602,-0.342,-250.1374,-18.7481,-122.6336
44408,-0.5581,0.2,-0.3918,-225.313,-26.5191,-106.4809
44428,-0.1023,0.0991,-0.7742,-197.8931,23.4122,-78.374
44448,0.5745,-0.1025,-1.3838,-145.0153,52.8779,-24.8397
44468,0.8171,-0.095,-1.9143,-32.8626,22.374,64.3969
44488,0.0874,-0.1799,-1.998,109.5878,-15.7634,124.4504
44508,-0.3525,-0.0005,-1.8755,215.0687,23.2748,152.5496
44528,-0.7371,0.3521,-1.6511,250.1298,74.3511,172.0229
44548,-1.1738,0.7571,-1.1663,250.1298,78.2214,180.1985
44568,-1.6721,0.873,0.6133,250.1298,-23.9466,143.3969
44588,-1.354,0.958,1.729,250.1298,-59.3664,109.7634
44608,-1.6052,0.9561,1.9999,247.5802,-2.374,93.8702
44628,-1.915,0.7739,1.9999,118.9008,-8.7939,46.6641
44648,-1.9768,0.7007,1.8601,18.2137,-3.8473,-9.1908
44668,-1.8784,0.7319,1.6052,-68.1145,-22.0076,-58.8168
44688,-1.9133,0.5315,1.4521,-142,-4.1603,-92.5115
44708,-1.759,0.3228,0.959,-213.6183,6.8397,-140.5038
44728,-1.7935,0.0327,1.1755,-250.1374,8.8931,-204.4733
44748,-1.1233,0.4426,0.572,-250.1374,26.1145,-250.1374
44768,0.085,0.4167,-1.2302,-250.1374,167.7405,-229.7481
44788,0.3994,-0.1196,-1.01,-242.4809,205.5038,-181.0916
44808,0.8071,-0.104,-0.321,-179.4809,89.2519,-122.458
44828,0.6982,0.1096,-0.9724,-144.2824,-43.0076,-20.5725
44848,-0.0422,-0.1101,-2,-13.458,-46.5191,73.3511
44868,-0.333,0.0698,-2,163.0076,5.9313,106.9847
44888,-0.427,0.5139,-1.5728,250.1298,70.084,154.8397
44908,-1.1133,0.5779,-0.3499,250.1298,-23.3359,183.4275
44928,-1.2461,0.542,0.8062,250.1298,-179.3512,144.6412
44948,-1.052,0.7424,0.8259,250.1298,-141.374,145.2366
44968,-1.1289,0.5935,1.1533,250.1298,-144.771,121.0916
44988,-0.5371,0.7903,1.6396,231.374,-226.5573,126.0611
45008,-0.3755,0.7898,1.9999,154.0534,-250.1374,167.1603
45028,-0.4009,1.0098,1.9999,25.4427,-250.1374,223.3053
45048,-0.5542,1.489,1.9999,-58.374,-250.1374,250.1298
45068,-1.238,1.3381,1.439,-41.0305,-250.1374,250.1298
45088,-2,0.8523,1.7891,-86.1145,-250.1374,250.1298
45108,-2,0.5828,1.155,-188.9084,-143.5573,115.7405
45128,-1.3982,0.7178,0.7336,-250.1374,246.7481,-38.0153
45148,-0.322,0.7,1.1074,-247.0534,250.1298,-102.8931
45168,0.5093,0.6948,1.801,-250.1374,222.6794,-71.6565
45188,0.574,0.6729,1.3889,-249.458,-109.855,17.2137
45208,0.0449,0.6306,0.5505,-181.7786,-250.1374,119.2595
45228,-0.6484,0.3289,0.4192,-118.6947,-250.1374,159.3282
45248,-0.9221,0.0667,0.7559,-107.0382,-250.1374,145.2137
45268,-0.9768,-0.0027,0.6709,-70.458,-250.1374,121.8015
45288,-1.4661,-0.2432,0.4238,-5.9008,-250.1374,46.7099
45308,-1.4258,-0.1572,0.0312,70.6107,-250.1374,-35.084
45328,-1.2578,-0.1487,0.4861,98.0458,-250.1374,-99.5038
45348,-0.6882,0.0349,1.4001,47.8626,-184.2901,-159.7099
45368,-0.252,0.1768,1.1531,36.5191,-250.1374,-197.0763
45388,0.031,0.1716,0.801,102.4962,-250.1374,-242.7099
45408,0.3301,0.5225,0.281,157.0611,-250.1374,-250.1374
45428,1.1675,0.8911,0.3796,153.3053,-250.1374,-250.1374
45448,1.9999,1.1941,0.1445,115.374,-250.1374,-188.6718
45468,1.9999,1.075,0.2344,95.4046,-250.1374,-57.6031
45488,1.9939,0.9558,0.3406,60.7252,-134.8473,39.6947
45508,1.9077,0.8992,0.5283,-8.6412,46.8702,99.0763
45528,1.9976,0.865,0.1604,-52.6947,180.145,175
45548,1.6602,0.7944,0.3264,-47.1298,250.1298,250.1298
45568,0.8723,0.5288,0.4646,-101.8702,250.1298,250.1298
45588,0.396,0.3647,1.042,-209.1832,250.1298,250.1298
45608,0.2676,0.1045,0.9053,-250.1374,250.1298,250.1298
45628,0.1643,0.053,0.1587,-250.1374,250.1298,250.1298
45648,-0.9192,-0.3982,0.2852,-250.1374,250.1298,175.7405
45668,-0.7271,-0.4822,0.3948,-250.1374,250.1298,55.8473
45688,-0.0937,-0.2109,0.0261,-198.6565,250.1298,61.5878
